success,trial_type,trial_index,time_elapsed,internal_node_id,timeout,failed_images,failed_audio,failed_video,rt,stimulus,response,order,type,cue,target,condition,correct,search_rt,img_angle,color,uncertainty_half_range,uncertainty_half_range_image,uncertainty_rt,trial_duration
TRUE,fullscreen,0,2135,0.0-0.0,,,,,,,,,,,,,,,,,,,,
TRUE,preload,1,2201,0.0-1.0,FALSE,[],[],[],,,,,,,,,,,,,,,,
,image-keyboard-response,2,2624,0.0-2.0,,,,,422,img/instructions_color/info.png, ,,,,,,,,,,,,,
,survey-html-form,3,3356,0.0-3.0,,,,,732,,"{""subj_idx"":""001""}",0,,,,,,,,,,,,
,survey-html-form,4,3664,0.0-4.0,,,,,307,,"{""Born"":""1990""}",,,,,,,,,,,,,
,survey-html-form,5,4114,0.0-5.0,,,,,449,,"{""sex"":""1""}",,,,,,,,,,,,,
,survey-html-form,6,4616,0.0-6.0,,,,,502,,"{""education"":""5""}",,,,,,,,,,,,,
,image-keyboard-response,7,5897,0.0-7.0,,,,,1280,img/instructions_color/intro1.png,arrowright,,,,,,,,,,,,,
,image-keyboard-response,8,8581,0.0-8.0,,,,,2682,img/instructions_color/intro2.png, ,,,,,,,,,,,,,
,image-keyboard-response,9,13367,0.0-9.0,,,,,4786,img/instructions_color/intro32.png,arrowright,,,,,,,,,,,,,
,image-keyboard-response,10,14155,0.0-10.0,,,,,788,img/instructions_color/intro4.png,arrowright,,,,,,,,,,,,,
,image-keyboard-response,11,15743,0.0-11.0,,,,,1587,img/instructions_color/intro5.png,arrowright,,,,,,,,,,,,,
,image-keyboard-response,12,16907,0.0-12.0,,,,,1163,img/instructions_color/intro6.png,arrowright,,,,,,,,,,,,,
,image-keyboard-response,13,18443,0.0-13.0,,,,,1536,img/instructions_color/example1.png,arrowright,,,,,,,,,,,,,
,html-keyboard-response,14,18947,0.0-14.0-0.0,,,,,null,"<p style=""font-size: 30px; font-family: SimSun;"">+</p>",null,,,,,,,,,,,,,
,image-keyboard-response,15,19458,0.0-14.0-1.0,,,,,null,img/instructions_color/red.png,null,,example_cue,img/instructions_color/red.png,,,,,,,,,,
,image-keyboard-response,16,20019,0.0-14.0-2.0,,,,,560,img/color/color_334.png,arrowleft,,example_target,img/instructions_color/red.png,img/color/color_334.png,1,FALSE,,,,,,,
,reconstruct-colorwheel,17,29148,0.0-14.0-3.0,,,,,,,356,,example_recon,,,,,9124.7,356,"rgba(246, 8, 0, 1)",,NaN,0.399999976,
,image-keyboard-response,18,40299,0.0-14.0-4.0,,,,,11149,img/instructions_color/example2.png,arrowright,,example_confirmation,,,,,,,,,,,
,image-keyboard-response,19,43043,0.0-15.0,,,,,2743,img/instructions_color/prac1.png, ,,,,,,,,,,,,,
,image-keyboard-response,20,43544,0.0-16.0-0.0,,,,,null,img/instructions_color/green.png,null,,prac_cue,img/instructions_color/green.png,,,,,,,,,,
,image-keyboard-response,21,45115,0.0-16.0-1.0,,,,,1570,img/color/color_018.png,arrowleft,,prac_target,img/instructions_color/green.png,img/color/color_018.png,0,TRUE,,,,,,,
,reconstruct-colorwheel,22,55596,0.0-16.0-2.0,,,,,,,350,,prac_recon,,,,,8846.1,350,"rgba(233, 21, 0, 1)",0.226892803,13,1632.1,
,html-keyboard-response,23,58149,0.0-16.0-3.0,,,,,2551,<p style='font-size: 30px; font-family: SimSun;'>你当前的正确率为 <strong>100%</strong></p> <p style='font-size: 30px; font-family: SimSun;'>按任意键结束</p>,arrowright,,prac_feedback,,,,100,,,,,,,
,html-keyboard-response,24,59309,0.0-16.0-4.0,,,,,null,"<p style=""font-size: 30px; font-family: SimSun;"">+</p>",null,,prac_iti,,,,,,,,,,,1148
,image-keyboard-response,25,59823,0.0-16.0-0.1,,,,,null,img/instructions_color/green.png,null,,prac_cue,img/instructions_color/green.png,,,,,,,,,,
,image-keyboard-response,26,60756,0.0-16.0-1.1,,,,,932,img/color/color_246.png,arrowright,,prac_target,img/instructions_color/green.png,img/color/color_246.png,1,TRUE,,,,,,,
,reconstruct-colorwheel,27,66664,0.0-16.0-2.1,,,,,,,244,,prac_recon,,,,,3693.9,244,"rgba(8, 246, 0, 1)",0.052359878,2,2212.3,
,html-keyboard-response,28,67440,0.0-16.0-3.1,,,,,772,<p style='font-size: 30px; font-family: SimSun;'>你当前的正确率为 <strong>100%</strong></p> <p style='font-size: 30px; font-family: SimSun;'>按任意键结束</p>,arrowright,,prac_feedback,,,,100,,,,,,,
,html-keyboard-response,29,68823,0.0-16.0-4.1,,,,,null,"<p style=""font-size: 30px; font-family: SimSun;"">+</p>",null,,prac_iti,,,,,,,,,,,1378
,image-keyboard-response,30,69336,0.0-16.0-0.2,,,,,null,img/instructions_color/green.png,null,,prac_cue,img/instructions_color/green.png,,,,,,,,,,
,image-keyboard-response,31,70120,0.0-16.0-1.2,,,,,783,img/color/color_235.png,arrowright,,prac_target,img/instructions_color/green.png,img/color/color_235.png,1,TRUE,,,,,,,
,reconstruct-colorwheel,32,76468,0.0-16.0-2.2,,,,,,,236,,prac_recon,,,,,4134.2,236,"rgba(0, 246, 8, 1)",0.017453293,0,2211.2,
,html-keyboard-response,33,77504,0.0-16.0-3.2,,,,,1034,<p style='font-size: 30px; font-family: SimSun;'>你当前的正确率为 <strong>100%</strong></p> <p style='font-size: 30px; font-family: SimSun;'>按任意键结束</p>, ,,prac_feedback,,,,100,,,,,,,
,html-keyboard-response,34,78795,0.0-16.0-4.2,,,,,null,"<p style=""font-size: 30px; font-family: SimSun;"">+</p>",null,,prac_iti,,,,,,,,,,,1277
,image-keyboard-response,35,79307,0.0-16.0-0.3,,,,,null,img/instructions_color/red.png,null,,prac_cue,img/instructions_color/red.png,,,,,,,,,,
,image-keyboard-response,36,80276,0.0-16.0-1.3,,,,,968,img/color/color_246.png,arrowleft,,prac_target,img/instructions_color/red.png,img/color/color_246.png,0,TRUE,,,,,,,
,reconstruct-colorwheel,37,85036,0.0-16.0-2.3,,,,,,,239,,prac_recon,,,,,3570.1,239,"rgba(0, 252, 2, 1)",0.087266463,4,1188.1,
,html-keyboard-response,38,87388,0.0-16.0-3.3,,,,,2350,<p style='font-size: 30px; font-family: SimSun;'>你当前的正确率为 <strong>100%</strong></p> <p style='font-size: 30px; font-family: SimSun;'>按任意键结束</p>, ,,prac_feedback,,,,100,,,,,,,
,html-keyboard-response,39,88688,0.0-16.0-4.3,,,,,null,"<p style=""font-size: 30px; font-family: SimSun;"">+</p>",null,,prac_iti,,,,,,,,,,,1297
,image-keyboard-response,40,89200,0.0-16.0-0.4,,,,,null,img/instructions_color/blue.png,null,,prac_cue,img/instructions_color/blue.png,,,,,,,,,,
,image-keyboard-response,41,90108,0.0-16.0-1.4,,,,,907,img/color/color_229.png,arrowleft,,prac_target,img/instructions_color/blue.png,img/color/color_229.png,0,TRUE,,,,,,,
,reconstruct-colorwheel,42,94227,0.0-16.0-2.4,,,,,,,245,,prac_recon,,,,,3114,245,"rgba(10, 244, 0, 1)",0.087266463,4,1003.8,
,html-keyboard-response,43,95012,0.0-16.0-3.4,,,,,783,<p style='font-size: 30px; font-family: SimSun;'>你当前的正确率为 <strong>100%</strong></p> <p style='font-size: 30px; font-family: SimSun;'>按任意键结束</p>,arrowup,,prac_feedback,,,,100,,,,,,,
,html-keyboard-response,44,96130,0.0-16.0-4.4,,,,,null,"<p style=""font-size: 30px; font-family: SimSun;"">+</p>",null,,prac_iti,,,,,,,,,,,1116
,image-keyboard-response,45,96640,0.0-16.0-0.5,,,,,null,img/instructions_color/green.png,null,,prac_cue,img/instructions_color/green.png,,,,,,,,,,
,image-keyboard-response,46,97655,0.0-16.0-1.5,,,,,1014,img/color/color_140.png,arrowleft,,prac_target,img/instructions_color/green.png,img/color/color_140.png,0,TRUE,,,,,,,
,reconstruct-colorwheel,47,104808,0.0-16.0-2.5,,,,,,,120,,prac_recon,,,,,5662.5,120,"rgba(0, 0, 255, 1)",0.610865238,35,1488.3,
,html-keyboard-response,48,105444,0.0-16.0-3.5,,,,,633,<p style='font-size: 30px; font-family: SimSun;'>你当前的正确率为 <strong>100%</strong></p> <p style='font-size: 30px; font-family: SimSun;'>按任意键结束</p>,arrowdown,,prac_feedback,,,,100,,,,,,,
,html-keyboard-response,49,106548,0.0-16.0-4.5,,,,,null,"<p style=""font-size: 30px; font-family: SimSun;"">+</p>",null,,prac_iti,,,,,,,,,,,1090
,image-keyboard-response,50,107058,0.0-16.0-0.6,,,,,null,img/instructions_color/blue.png,null,,prac_cue,img/instructions_color/blue.png,,,,,,,,,,
,image-keyboard-response,51,107883,0.0-16.0-1.6,,,,,825,img/color/color_344.png,arrowleft,,prac_target,img/instructions_color/blue.png,img/color/color_344.png,0,TRUE,,,,,,,
,reconstruct-colorwheel,52,112284,0.0-16.0-2.6,,,,,,,359,,prac_recon,,,,,2945.9,359,"rgba(252, 2, 0, 1)",0.261799388,15,1452.4,
,html-keyboard-response,53,113708,0.0-16.0-3.6,,,,,1422,<p style='font-size: 30px; font-family: SimSun;'>你当前的正确率为 <strong>100%</strong></p> <p style='font-size: 30px; font-family: SimSun;'>按任意键结束</p>,arrowright,,prac_feedback,,,,100,,,,,,,
,html-keyboard-response,54,115109,0.0-16.0-4.6,,,,,null,"<p style=""font-size: 30px; font-family: SimSun;"">+</p>",null,,prac_iti,,,,,,,,,,,1389
,image-keyboard-response,55,115621,0.0-16.0-0.7,,,,,null,img/instructions_color/red.png,null,,prac_cue,img/instructions_color/red.png,,,,,,,,,,
,image-keyboard-response,56,116344,0.0-16.0-1.7,,,,,722,img/color/color_351.png,arrowleft,,prac_target,img/instructions_color/red.png,img/color/color_351.png,1,FALSE,,,,,,,
,reconstruct-colorwheel,57,122252,0.0-16.0-2.7,,,,,,,354,,prac_recon,,,,,4545.8,354,"rgba(242, 12, 0, 1)",0.087266463,4,1360,
,html-keyboard-response,58,126184,0.0-16.0-3.7,,,,,3929,<p style='font-size: 30px; font-family: SimSun;'>你当前的正确率为 <strong>88%</strong></p> <p style='font-size: 30px; font-family: SimSun;'>按任意键结束</p>, ,,prac_feedback,,,,88,,,,,,,
,html-keyboard-response,59,127312,0.0-16.0-4.7,,,,,null,"<p style=""font-size: 30px; font-family: SimSun;"">+</p>",null,,prac_iti,,,,,,,,,,,1114
,image-keyboard-response,60,127823,0.0-16.0-0.8,,,,,null,img/instructions_color/blue.png,null,,prac_cue,img/instructions_color/blue.png,,,,,,,,,,
,image-keyboard-response,61,128844,0.0-16.0-1.8,,,,,1020,img/color/color_119.png,arrowright,,prac_target,img/instructions_color/blue.png,img/color/color_119.png,1,TRUE,,,,,,,
,reconstruct-colorwheel,62,134824,0.0-16.0-2.8,,,,,,,119,,prac_recon,,,,,4413.3,119,"rgba(2, 0, 252, 1)",0.296705973,17,1564.2,
,html-keyboard-response,63,135416,0.0-16.0-3.8,,,,,590,<p style='font-size: 30px; font-family: SimSun;'>你当前的正确率为 <strong>89%</strong></p> <p style='font-size: 30px; font-family: SimSun;'>按任意键结束</p>,arrowdown,,prac_feedback,,,,89,,,,,,,
,html-keyboard-response,64,136592,0.0-16.0-4.8,,,,,null,"<p style=""font-size: 30px; font-family: SimSun;"">+</p>",null,,prac_iti,,,,,,,,,,,1161
,image-keyboard-response,65,137105,0.0-16.0-0.9,,,,,null,img/instructions_color/blue.png,null,,prac_cue,img/instructions_color/blue.png,,,,,,,,,,
,image-keyboard-response,66,139106,0.0-16.0-1.9,,,,,null,img/color/color_132.png,null,,prac_target,img/instructions_color/blue.png,img/color/color_132.png,1,FALSE,,,,,,,
,reconstruct-colorwheel,67,147368,0.0-16.0-2.9,,,,,,,120,,prac_recon,,,,,5170.9,120,"rgba(0, 0, 255, 1)",0.610865238,35,3088.1,
,html-keyboard-response,68,148636,0.0-16.0-3.9,,,,,1265,<p style='font-size: 30px; font-family: SimSun;'>你当前的正确率为 <strong>80%</strong></p> <p style='font-size: 30px; font-family: SimSun;'>按任意键结束</p>,arrowright,,prac_feedback,,,,80,,,,,,,
,html-keyboard-response,69,150054,0.0-16.0-4.9,,,,,null,"<p style=""font-size: 30px; font-family: SimSun;"">+</p>",null,,prac_iti,,,,,,,,,,,1410
,image-keyboard-response,70,150567,0.0-16.0-0.10,,,,,null,img/instructions_color/red.png,null,,prac_cue,img/instructions_color/red.png,,,,,,,,,,
,image-keyboard-response,71,151263,0.0-16.0-1.10,,,,,696,img/color/color_010.png,arrowleft,,prac_target,img/instructions_color/red.png,img/color/color_010.png,1,FALSE,,,,,,,
,reconstruct-colorwheel,72,154844,0.0-16.0-2.10,,,,,,,355,,prac_recon,,,,,2149.5,355,"rgba(244, 10, 0, 1)",0.122173048,6,1428.2,
,html-keyboard-response,73,155727,0.0-16.0-3.10,,,,,882,<p style='font-size: 30px; font-family: SimSun;'>你当前的正确率为 <strong>73%</strong></p> <p style='font-size: 30px; font-family: SimSun;'>按任意键结束</p>,arrowleft,,prac_feedback,,,,73,,,,,,,
,html-keyboard-response,74,157188,0.0-16.0-4.10,,,,,null,"<p style=""font-size: 30px; font-family: SimSun;"">+</p>",null,,prac_iti,,,,,,,,,,,1448
,image-keyboard-response,75,157699,0.0-16.0-0.11,,,,,null,img/instructions_color/red.png,null,,prac_cue,img/instructions_color/red.png,,,,,,,,,,
,image-keyboard-response,76,158859,0.0-16.0-1.11,,,,,1160,img/color/color_105.png,arrowleft,,prac_target,img/instructions_color/red.png,img/color/color_105.png,0,TRUE,,,,,,,
,reconstruct-colorwheel,77,161055,0.0-16.0-2.11,,,,,,,118,,prac_recon,,,,,1146.1,118,"rgba(4, 0, 250, 1)",0.122173048,6,1047.9,
,html-keyboard-response,78,162219,0.0-16.0-3.11,,,,,1162,<p style='font-size: 30px; font-family: SimSun;'>你当前的正确率为 <strong>75%</strong></p> <p style='font-size: 30px; font-family: SimSun;'>按任意键结束</p>, ,,prac_feedback,,,,75,,,,,,,
,html-keyboard-response,79,163496,0.0-16.0-4.11,,,,,null,"<p style=""font-size: 30px; font-family: SimSun;"">+</p>",null,,prac_iti,,,,,,,,,,,1274
,image-keyboard-response,80,165423,0.0-17.0,,,,,1926,img/instructions_color/prac2.png, ,,,,,,,,,,,,,
,image-keyboard-response,81,166603,0.0-18.0,,,,,1179,img/instructions_color/test1.png, ,,,,,,,,,,,,,
,image-keyboard-response,82,167108,0.0-19.0-0.0,,,,,null,img/instructions_color/red.png,null,,test1_cue,img/instructions_color/red.png,,,,,,,,,,
,image-keyboard-response,83,167823,0.0-19.0-1.0,,,,,715,img/color/color_096.png,arrowleft,,test1_target,img/instructions_color/red.png,img/color/color_096.png,0,TRUE,,,,,,,
,reconstruct-colorwheel,84,172676,0.0-19.0-2.0,,,,,,,127,,test1_recon,,,,,3678.1,127,"rgba(0, 14, 240, 1)",0.261799388,15,1172,
,html-keyboard-response,85,173808,0.0-19.0-3.0,,,,,null,"<p style=""font-size: 30px; font-family: SimSun;"">+</p>",null,,test1_iti,,,,,,,,,,,1120
,image-keyboard-response,86,174320,0.0-19.0-0.1,,,,,null,img/instructions_color/blue.png,null,,test1_cue,img/instructions_color/blue.png,,,,,,,,,,
,image-keyboard-response,87,175423,0.0-19.0-1.1,,,,,1102,img/color/color_108.png,arrowright,,test1_target,img/instructions_color/blue.png,img/color/color_108.png,1,TRUE,,,,,,,
,reconstruct-colorwheel,88,179936,0.0-19.0-2.1,,,,,,,120,,test1_recon,,,,,3049.9,120,"rgba(0, 0, 255, 1)",0.087266463,4,1459.7,
,html-keyboard-response,89,181285,0.0-19.0-3.1,,,,,null,"<p style=""font-size: 30px; font-family: SimSun;"">+</p>",null,,test1_iti,,,,,,,,,,,1339
,image-keyboard-response,90,181798,0.0-19.0-0.2,,,,,null,img/instructions_color/green.png,null,,test1_cue,img/instructions_color/green.png,,,,,,,,,,
,image-keyboard-response,91,182564,0.0-19.0-1.2,,,,,765,img/color/color_245.png,arrowleft,,test1_target,img/instructions_color/green.png,img/color/color_245.png,1,FALSE,,,,,,,
,reconstruct-colorwheel,92,187812,0.0-19.0-2.2,,,,,,,243,,test1_recon,,,,,4269.7,243,"rgba(6, 248, 0, 1)",0.017453293,0,976.1,
,html-keyboard-response,93,189163,0.0-19.0-3.2,,,,,null,"<p style=""font-size: 30px; font-family: SimSun;"">+</p>",null,,test1_iti,,,,,,,,,,,1336
,image-keyboard-response,94,189671,0.0-19.0-0.3,,,,,null,img/instructions_color/blue.png,null,,test1_cue,img/instructions_color/blue.png,,,,,,,,,,
,image-keyboard-response,95,190439,0.0-19.0-1.3,,,,,767,img/color/color_112.png,arrowright,,test1_target,img/instructions_color/blue.png,img/color/color_112.png,1,TRUE,,,,,,,
,reconstruct-colorwheel,96,195284,0.0-19.0-2.3,,,,,,,126,,test1_recon,,,,,3149.9,126,"rgba(0, 12, 242, 1)",0.157079633,9,1692.1,
,html-keyboard-response,97,196388,0.0-19.0-3.3,,,,,null,"<p style=""font-size: 30px; font-family: SimSun;"">+</p>",null,,test1_iti,,,,,,,,,,,1100
,image-keyboard-response,98,196901,0.0-19.0-0.4,,,,,null,img/instructions_color/blue.png,null,,test1_cue,img/instructions_color/blue.png,,,,,,,,,,
,image-keyboard-response,99,197740,0.0-19.0-1.4,,,,,838,img/color/color_342.png,arrowleft,,test1_target,img/instructions_color/blue.png,img/color/color_342.png,0,TRUE,,,,,,,
,reconstruct-colorwheel,100,203608,0.0-19.0-2.4,,,,,,,357,,test1_recon,,,,,4698.3,357,"rgba(248, 6, 0, 1)",0.122173048,6,1167.1,
,html-keyboard-response,101,204922,0.0-19.0-3.4,,,,,null,"<p style=""font-size: 30px; font-family: SimSun;"">+</p>",null,,test1_iti,,,,,,,,,,,1296
,image-keyboard-response,102,205434,0.0-19.0-0.5,,,,,null,img/instructions_color/red.png,null,,test1_cue,img/instructions_color/red.png,,,,,,,,,,
,image-keyboard-response,103,206108,0.0-19.0-1.5,,,,,673,img/color/color_128.png,arrowright,,test1_target,img/instructions_color/red.png,img/color/color_128.png,0,FALSE,,,,,,,
,reconstruct-colorwheel,104,216000,0.0-19.0-2.5,,,,,,,356,,test1_recon,,,,,7701.5,356,"rgba(246, 8, 0, 1)",0.087266463,4,2188,
,html-keyboard-response,105,217281,0.0-19.0-3.5,,,,,null,"<p style=""font-size: 30px; font-family: SimSun;"">+</p>",null,,test1_iti,,,,,,,,,,,1267
,image-keyboard-response,106,217792,0.0-19.0-0.6,,,,,null,img/instructions_color/blue.png,null,,test1_cue,img/instructions_color/blue.png,,,,,,,,,,
,image-keyboard-response,107,218927,0.0-19.0-1.6,,,,,1134,img/color/color_107.png,arrowright,,test1_target,img/instructions_color/blue.png,img/color/color_107.png,1,TRUE,,,,,,,
,reconstruct-colorwheel,108,227268,0.0-19.0-2.6,,,,,,,119,,test1_recon,,,,,7035.6,119,"rgba(2, 0, 252, 1)",0.157079633,9,1299,
,html-keyboard-response,109,228589,0.0-19.0-3.6,,,,,null,"<p style=""font-size: 30px; font-family: SimSun;"">+</p>",null,,test1_iti,,,,,,,,,,,1304
,image-keyboard-response,110,229100,0.0-19.0-0.7,,,,,null,img/instructions_color/blue.png,null,,test1_cue,img/instructions_color/blue.png,,,,,,,,,,
,image-keyboard-response,111,229671,0.0-19.0-1.7,,,,,571,img/color/color_123.png,arrowright,,test1_target,img/instructions_color/blue.png,img/color/color_123.png,1,TRUE,,,,,,,
,reconstruct-colorwheel,112,236532,0.0-19.0-2.7,,,,,,,123,,test1_recon,,,,,5469.3,123,"rgba(0, 6, 248, 1)",0.20943951,11,1388,
,html-keyboard-response,113,237656,0.0-19.0-3.7,,,,,null,"<p style=""font-size: 30px; font-family: SimSun;"">+</p>",null,,test1_iti,,,,,,,,,,,1111
,image-keyboard-response,114,238168,0.0-19.0-0.8,,,,,null,img/instructions_color/red.png,null,,test1_cue,img/instructions_color/red.png,,,,,,,,,,
,image-keyboard-response,115,238856,0.0-19.0-1.8,,,,,687,img/color/color_248.png,arrowleft,,test1_target,img/instructions_color/red.png,img/color/color_248.png,0,TRUE,,,,,,,
,reconstruct-colorwheel,116,244115,0.0-19.0-2.8,,,,,,,238,,test1_recon,,,,,4068.1,238,"rgba(0, 250, 4, 1)",0.174532925,9,1187.9,
,html-keyboard-response,117,245511,0.0-19.0-3.8,,,,,null,"<p style=""font-size: 30px; font-family: SimSun;"">+</p>",null,,test1_iti,,,,,,,,,,,1383
,image-keyboard-response,118,246021,0.0-19.0-0.9,,,,,null,img/instructions_color/green.png,null,,test1_cue,img/instructions_color/green.png,,,,,,,,,,
,image-keyboard-response,119,246631,0.0-19.0-1.9,,,,,610,img/color/color_347.png,arrowright,,test1_target,img/instructions_color/green.png,img/color/color_347.png,0,FALSE,,,,,,,
,reconstruct-colorwheel,120,252807,0.0-19.0-2.9,,,,,,,8,,test1_recon,,,,,4357.1,8,"rgba(238, 0, 17, 1)",0.27925268,15,1816,
,html-keyboard-response,121,254164,0.0-19.0-3.9,,,,,null,"<p style=""font-size: 30px; font-family: SimSun;"">+</p>",null,,test1_iti,,,,,,,,,,,1349
,image-keyboard-response,122,254676,0.0-19.0-0.10,,,,,null,img/instructions_color/green.png,null,,test1_cue,img/instructions_color/green.png,,,,,,,,,,
,image-keyboard-response,123,255255,0.0-19.0-1.10,,,,,579,img/color/color_259.png,arrowleft,,test1_target,img/instructions_color/green.png,img/color/color_259.png,1,FALSE,,,,,,,
,reconstruct-colorwheel,124,268171,0.0-19.0-2.10,,,,,,,239,,test1_recon,,,,,5493,239,"rgba(0, 252, 2, 1)",0.27925268,15,7420,
,html-keyboard-response,125,269357,0.0-19.0-3.10,,,,,null,"<p style=""font-size: 30px; font-family: SimSun;"">+</p>",null,,test1_iti,,,,,,,,,,,1167
,image-keyboard-response,126,269869,0.0-19.0-0.11,,,,,null,img/instructions_color/blue.png,null,,test1_cue,img/instructions_color/blue.png,,,,,,,,,,
,image-keyboard-response,127,270519,0.0-19.0-1.11,,,,,649,img/color/color_100.png,arrowleft,,test1_target,img/instructions_color/blue.png,img/color/color_100.png,1,FALSE,,,,,,,
,reconstruct-colorwheel,128,276971,0.0-19.0-2.11,,,,,,,114,,test1_recon,,,,,5352.7,114,"rgba(12, 0, 242, 1)",0.157079633,9,1095.8,
,html-keyboard-response,129,278024,0.0-19.0-3.11,,,,,null,"<p style=""font-size: 30px; font-family: SimSun;"">+</p>",null,,test1_iti,,,,,,,,,,,1037
,image-keyboard-response,130,278535,0.0-19.0-0.12,,,,,null,img/instructions_color/red.png,null,,test1_cue,img/instructions_color/red.png,,,,,,,,,,
,image-keyboard-response,131,279298,0.0-19.0-1.12,,,,,761,img/color/color_029.png,arrowright,,test1_target,img/instructions_color/red.png,img/color/color_029.png,1,TRUE,,,,,,,
,reconstruct-colorwheel,132,288119,0.0-19.0-2.12,,,,,,,23,,test1_recon,,,,,2094.1,23,"rgba(206, 0, 48, 1)",0.296705973,17,6724.2,
,html-keyboard-response,133,289542,0.0-19.0-3.12,,,,,null,"<p style=""font-size: 30px; font-family: SimSun;"">+</p>",null,,test1_iti,,,,,,,,,,,1410
,image-keyboard-response,134,290052,0.0-19.0-0.13,,,,,null,img/instructions_color/green.png,null,,test1_cue,img/instructions_color/green.png,,,,,,,,,,
,image-keyboard-response,135,290839,0.0-19.0-1.13,,,,,786,img/color/color_105.png,arrowleft,,test1_target,img/instructions_color/green.png,img/color/color_105.png,0,TRUE,,,,,,,
,reconstruct-colorwheel,136,298566,0.0-19.0-2.13,,,,,,,132,,test1_recon,,,,,6357,132,"rgba(0, 25, 229, 1)",0.191986218,11,1363.4,
,html-keyboard-response,137,299759,0.0-19.0-3.13,,,,,null,"<p style=""font-size: 30px; font-family: SimSun;"">+</p>",null,,test1_iti,,,,,,,,,,,1182
,image-keyboard-response,138,300270,0.0-19.0-0.14,,,,,null,img/instructions_color/blue.png,null,,test1_cue,img/instructions_color/blue.png,,,,,,,,,,
,image-keyboard-response,139,302274,0.0-19.0-1.14,,,,,null,img/color/color_000.png,null,,test1_target,img/instructions_color/blue.png,img/color/color_000.png,0,FALSE,,,,,,,
,reconstruct-colorwheel,140,310671,0.0-19.0-2.14,,,,,,,9,,test1_recon,,,,,7556.9,9,"rgba(235, 0, 19, 1)",0.087266463,4,835.5,
,html-keyboard-response,141,312095,0.0-19.0-3.14,,,,,null,"<p style=""font-size: 30px; font-family: SimSun;"">+</p>",null,,test1_iti,,,,,,,,,,,1408
,image-keyboard-response,142,312608,0.0-19.0-0.15,,,,,null,img/instructions_color/red.png,null,,test1_cue,img/instructions_color/red.png,,,,,,,,,,
,image-keyboard-response,143,313215,0.0-19.0-1.15,,,,,607,img/color/color_331.png,arrowright,,test1_target,img/instructions_color/red.png,img/color/color_331.png,1,TRUE,,,,,,,
,reconstruct-colorwheel,144,319415,0.0-19.0-2.15,,,,,,,341,,test1_recon,,,,,4607.6,341,"rgba(214, 40, 0, 1)",0.314159265,18,1588.2,
,html-keyboard-response,145,320602,0.0-19.0-3.15,,,,,null,"<p style=""font-size: 30px; font-family: SimSun;"">+</p>",null,,test1_iti,,,,,,,,,,,1177
,image-keyboard-response,146,321114,0.0-19.0-0.16,,,,,null,img/instructions_color/green.png,null,,test1_cue,img/instructions_color/green.png,,,,,,,,,,
,image-keyboard-response,147,321766,0.0-19.0-1.16,,,,,652,img/color/color_247.png,arrowright,,test1_target,img/instructions_color/green.png,img/color/color_247.png,1,TRUE,,,,,,,
,reconstruct-colorwheel,148,325651,0.0-19.0-2.16,,,,,,,238,,test1_recon,,,,,2460.6,238,"rgba(0, 250, 4, 1)",0.052359878,2,1420,
,html-keyboard-response,149,326671,0.0-19.0-3.16,,,,,null,"<p style=""font-size: 30px; font-family: SimSun;"">+</p>",null,,test1_iti,,,,,,,,,,,1016
,image-keyboard-response,150,327180,0.0-19.0-0.17,,,,,null,img/instructions_color/green.png,null,,test1_cue,img/instructions_color/green.png,,,,,,,,,,
,image-keyboard-response,151,327851,0.0-19.0-1.17,,,,,670,img/color/color_215.png,arrowright,,test1_target,img/instructions_color/green.png,img/color/color_215.png,1,TRUE,,,,,,,
,reconstruct-colorwheel,152,333823,0.0-19.0-2.17,,,,,,,272,,test1_recon,,,,,4532.3,272,"rgba(68, 187, 0, 1)",0.104719755,6,1436.1,
,html-keyboard-response,153,334986,0.0-19.0-3.17,,,,,null,"<p style=""font-size: 30px; font-family: SimSun;"">+</p>",null,,test1_iti,,,,,,,,,,,1147
,image-keyboard-response,154,335497,0.0-19.0-0.18,,,,,null,img/instructions_color/green.png,null,,test1_cue,img/instructions_color/green.png,,,,,,,,,,
,image-keyboard-response,155,336614,0.0-19.0-1.18,,,,,1116,img/color/color_091.png,arrowleft,,test1_target,img/instructions_color/green.png,img/color/color_091.png,0,TRUE,,,,,,,
,reconstruct-colorwheel,156,340703,0.0-19.0-2.18,,,,,,,84,,test1_recon,,,,,2968.5,84,"rgba(76, 0, 178, 1)",0.13962634,8,1116,
,html-keyboard-response,157,341870,0.0-19.0-3.18,,,,,null,"<p style=""font-size: 30px; font-family: SimSun;"">+</p>",null,,test1_iti,,,,,,,,,,,1159
,image-keyboard-response,158,342381,0.0-19.0-0.19,,,,,null,img/instructions_color/red.png,null,,test1_cue,img/instructions_color/red.png,,,,,,,,,,
,image-keyboard-response,159,343366,0.0-19.0-1.19,,,,,985,img/color/color_027.png,arrowright,,test1_target,img/instructions_color/red.png,img/color/color_027.png,1,TRUE,,,,,,,
,reconstruct-colorwheel,160,350627,0.0-19.0-2.19,,,,,,,29,,test1_recon,,,,,7256.2,29,"rgba(193, 0, 61, 1)",,NaN,0.100000024,
,html-keyboard-response,161,351911,0.0-19.0-3.19,,,,,null,"<p style=""font-size: 30px; font-family: SimSun;"">+</p>",null,,test1_iti,,,,,,,,,,,1279
,image-keyboard-response,162,352419,0.0-19.0-0.20,,,,,null,img/instructions_color/green.png,null,,test1_cue,img/instructions_color/green.png,,,,,,,,,,
,image-keyboard-response,163,353594,0.0-19.0-1.20,,,,,1174,img/color/color_107.png,arrowleft,,test1_target,img/instructions_color/green.png,img/color/color_107.png,0,TRUE,,,,,,,
,reconstruct-colorwheel,164,358722,0.0-19.0-2.20,,,,,,,134,,test1_recon,,,,,5120.7,134,"rgba(0, 29, 225, 1)",,NaN,0.199999988,
,html-keyboard-response,165,359866,0.0-19.0-3.20,,,,,null,"<p style=""font-size: 30px; font-family: SimSun;"">+</p>",null,,test1_iti,,,,,,,,,,,1128
,image-keyboard-response,166,360378,0.0-19.0-0.21,,,,,null,img/instructions_color/blue.png,null,,test1_cue,img/instructions_color/blue.png,,,,,,,,,,
,image-keyboard-response,167,361714,0.0-19.0-1.21,,,,,1335,img/color/color_096.png,arrowright,,test1_target,img/instructions_color/blue.png,img/color/color_096.png,1,TRUE,,,,,,,
,reconstruct-colorwheel,168,365651,0.0-19.0-2.21,,,,,,,126,,test1_recon,,,,,2435.6,126,"rgba(0, 12, 242, 1)",0.191986218,11,1494.3,
,html-keyboard-response,169,367090,0.0-19.0-3.21,,,,,null,"<p style=""font-size: 30px; font-family: SimSun;"">+</p>",null,,test1_iti,,,,,,,,,,,1430
,image-keyboard-response,170,367603,0.0-19.0-0.22,,,,,null,img/instructions_color/green.png,null,,test1_cue,img/instructions_color/green.png,,,,,,,,,,
,image-keyboard-response,171,368662,0.0-19.0-1.22,,,,,1058,img/color/color_233.png,arrowright,,test1_target,img/instructions_color/green.png,img/color/color_233.png,1,TRUE,,,,,,,
,reconstruct-colorwheel,172,372750,0.0-19.0-2.22,,,,,,,235,,test1_recon,,,,,3061.9,235,"rgba(0, 244, 10, 1)",0.104719755,6,1020,
,html-keyboard-response,173,374098,0.0-19.0-3.22,,,,,null,"<p style=""font-size: 30px; font-family: SimSun;"">+</p>",null,,test1_iti,,,,,,,,,,,1341
,image-keyboard-response,174,374607,0.0-19.0-0.23,,,,,null,img/instructions_color/blue.png,null,,test1_cue,img/instructions_color/blue.png,,,,,,,,,,
,image-keyboard-response,175,375206,0.0-19.0-1.23,,,,,598,img/color/color_124.png,arrowleft,,test1_target,img/instructions_color/blue.png,img/color/color_124.png,1,FALSE,,,,,,,
,reconstruct-colorwheel,176,383574,0.0-19.0-2.23,,,,,,,119,,test1_recon,,,,,6704.2,119,"rgba(2, 0, 252, 1)",0.34906585,20,1659.7,
,html-keyboard-response,177,384641,0.0-19.0-3.23,,,,,null,"<p style=""font-size: 30px; font-family: SimSun;"">+</p>",null,,test1_iti,,,,,,,,,,,1052
,image-keyboard-response,178,385153,0.0-19.0-0.24,,,,,null,img/instructions_color/green.png,null,,test1_cue,img/instructions_color/green.png,,,,,,,,,,
,image-keyboard-response,179,387102,0.0-19.0-1.24,,,,,1948,img/color/color_007.png,arrowleft,,test1_target,img/instructions_color/green.png,img/color/color_007.png,0,TRUE,,,,,,,
,reconstruct-colorwheel,180,391722,0.0-19.0-2.24,,,,,,,21,,test1_recon,,,,,3272,21,"rgba(210, 0, 44, 1)",0.191986218,11,1344.2,
,html-keyboard-response,181,392817,0.0-19.0-3.24,,,,,null,"<p style=""font-size: 30px; font-family: SimSun;"">+</p>",null,,test1_iti,,,,,,,,,,,1089
,image-keyboard-response,182,393329,0.0-19.0-0.25,,,,,null,img/instructions_color/red.png,null,,test1_cue,img/instructions_color/red.png,,,,,,,,,,
,image-keyboard-response,183,394090,0.0-19.0-1.25,,,,,761,img/color/color_236.png,arrowleft,,test1_target,img/instructions_color/red.png,img/color/color_236.png,0,TRUE,,,,,,,
,reconstruct-colorwheel,184,398762,0.0-19.0-2.25,,,,,,,233,,test1_recon,,,,,3598.7,233,"rgba(0, 240, 14, 1)",0.34906585,20,1068,
,html-keyboard-response,185,400209,0.0-19.0-3.25,,,,,null,"<p style=""font-size: 30px; font-family: SimSun;"">+</p>",null,,test1_iti,,,,,,,,,,,1432
,image-keyboard-response,186,400720,0.0-19.0-0.26,,,,,null,img/instructions_color/green.png,null,,test1_cue,img/instructions_color/green.png,,,,,,,,,,
,image-keyboard-response,187,402732,0.0-19.0-1.26,,,,,null,img/color/color_262.png,null,,test1_target,img/instructions_color/green.png,img/color/color_262.png,1,FALSE,,,,,,,
,reconstruct-colorwheel,188,405962,0.0-19.0-2.26,,,,,,,246,,test1_recon,,,,,2654.5,246,"rgba(12, 242, 0, 1)",0.087266463,4,568,
,html-keyboard-response,189,407213,0.0-19.0-3.26,,,,,null,"<p style=""font-size: 30px; font-family: SimSun;"">+</p>",null,,test1_iti,,,,,,,,,,,1242
,image-keyboard-response,190,407724,0.0-19.0-0.27,,,,,null,img/instructions_color/green.png,null,,test1_cue,img/instructions_color/green.png,,,,,,,,,,
,image-keyboard-response,191,409334,0.0-19.0-1.27,,,,,1609,img/color/color_123.png,arrowright,,test1_target,img/instructions_color/green.png,img/color/color_123.png,0,FALSE,,,,,,,
,reconstruct-colorwheel,192,416663,0.0-19.0-2.27,,,,,,,125,,test1_recon,,,,,5683.3,125,"rgba(0, 10, 244, 1)",0.27925268,15,1640,
,html-keyboard-response,193,417963,0.0-19.0-3.27,,,,,null,"<p style=""font-size: 30px; font-family: SimSun;"">+</p>",null,,test1_iti,,,,,,,,,,,1280
,image-keyboard-response,194,418473,0.0-19.0-0.28,,,,,null,img/instructions_color/blue.png,null,,test1_cue,img/instructions_color/blue.png,,,,,,,,,,
,image-keyboard-response,195,419946,0.0-19.0-1.28,,,,,1472,img/color/color_237.png,arrowleft,,test1_target,img/instructions_color/blue.png,img/color/color_237.png,0,TRUE,,,,,,,
,reconstruct-colorwheel,196,424734,0.0-19.0-2.28,,,,,,,251,,test1_recon,,,,,3799,251,"rgba(23, 231, 0, 1)",0.13962634,8,983.3,
,html-keyboard-response,197,425870,0.0-19.0-3.28,,,,,null,"<p style=""font-size: 30px; font-family: SimSun;"">+</p>",null,,test1_iti,,,,,,,,,,,1124
,image-keyboard-response,198,426381,0.0-19.0-0.29,,,,,null,img/instructions_color/blue.png,null,,test1_cue,img/instructions_color/blue.png,,,,,,,,,,
,image-keyboard-response,199,427538,0.0-19.0-1.29,,,,,1156,img/color/color_249.png,arrowleft,,test1_target,img/instructions_color/blue.png,img/color/color_249.png,0,TRUE,,,,,,,
,reconstruct-colorwheel,200,430182,0.0-19.0-2.29,,,,,,,258,,test1_recon,,,,,1569.8,258,"rgba(38, 216, 0, 1)",0.157079633,9,1069.8,
,html-keyboard-response,201,431308,0.0-19.0-3.29,,,,,null,"<p style=""font-size: 30px; font-family: SimSun;"">+</p>",null,,test1_iti,,,,,,,,,,,1118
,image-keyboard-response,202,431821,0.0-19.0-0.30,,,,,null,img/instructions_color/red.png,null,,test1_cue,img/instructions_color/red.png,,,,,,,,,,
,image-keyboard-response,203,432538,0.0-19.0-1.30,,,,,716,img/color/color_006.png,arrowright,,test1_target,img/instructions_color/red.png,img/color/color_006.png,1,TRUE,,,,,,,
,reconstruct-colorwheel,204,438394,0.0-19.0-2.30,,,,,,,4,,test1_recon,,,,,4765.4,4,"rgba(246, 0, 8, 1)",0.174532925,9,1083.5,
,html-keyboard-response,205,439595,0.0-19.0-3.30,,,,,null,"<p style=""font-size: 30px; font-family: SimSun;"">+</p>",null,,test1_iti,,,,,,,,,,,1189
,image-keyboard-response,206,440107,0.0-19.0-0.31,,,,,null,img/instructions_color/blue.png,null,,test1_cue,img/instructions_color/blue.png,,,,,,,,,,
,image-keyboard-response,207,440830,0.0-19.0-1.31,,,,,722,img/color/color_019.png,arrowleft,,test1_target,img/instructions_color/blue.png,img/color/color_019.png,0,TRUE,,,,,,,
,reconstruct-colorwheel,208,447310,0.0-19.0-2.31,,,,,,,32,,test1_recon,,,,,5363.4,32,"rgba(187, 0, 68, 1)",0.436332313,24,1112.4,
,html-keyboard-response,209,448818,0.0-19.0-3.31,,,,,null,"<p style=""font-size: 30px; font-family: SimSun;"">+</p>",null,,test1_iti,,,,,,,,,,,1499
,image-keyboard-response,210,449330,0.0-19.0-0.32,,,,,null,img/instructions_color/green.png,null,,test1_cue,img/instructions_color/green.png,,,,,,,,,,
,image-keyboard-response,211,450710,0.0-19.0-1.32,,,,,1379,img/color/color_017.png,arrowleft,,test1_target,img/instructions_color/green.png,img/color/color_017.png,0,TRUE,,,,,,,
,reconstruct-colorwheel,212,456538,0.0-19.0-2.32,,,,,,,25,,test1_recon,,,,,4707.4,25,"rgba(201, 0, 53, 1)",0.261799388,15,1115.8,
,html-keyboard-response,213,457738,0.0-19.0-3.32,,,,,null,"<p style=""font-size: 30px; font-family: SimSun;"">+</p>",null,,test1_iti,,,,,,,,,,,1191
,image-keyboard-response,214,458250,0.0-19.0-0.33,,,,,null,img/instructions_color/green.png,null,,test1_cue,img/instructions_color/green.png,,,,,,,,,,
,image-keyboard-response,215,458834,0.0-19.0-1.33,,,,,583,img/color/color_242.png,arrowright,,test1_target,img/instructions_color/green.png,img/color/color_242.png,1,TRUE,,,,,,,
,reconstruct-colorwheel,216,462078,0.0-19.0-2.33,,,,,,,233,,test1_recon,,,,,2179.4,233,"rgba(0, 240, 14, 1)",0.174532925,9,1059.9,
,html-keyboard-response,217,463390,0.0-19.0-3.33,,,,,null,"<p style=""font-size: 30px; font-family: SimSun;"">+</p>",null,,test1_iti,,,,,,,,,,,1300
,image-keyboard-response,218,463902,0.0-19.0-0.34,,,,,null,img/instructions_color/red.png,null,,test1_cue,img/instructions_color/red.png,,,,,,,,,,
,image-keyboard-response,219,465878,0.0-19.0-1.34,,,,,1975,img/color/color_269.png,arrowleft,,test1_target,img/instructions_color/red.png,img/color/color_269.png,0,TRUE,,,,,,,
,reconstruct-colorwheel,220,469802,0.0-19.0-2.34,,,,,,,281,,test1_recon,,,,,2595.5,281,"rgba(87, 167, 0, 1)",0.296705973,17,1323.5,
,html-keyboard-response,221,471270,0.0-19.0-3.34,,,,,null,"<p style=""font-size: 30px; font-family: SimSun;"">+</p>",null,,test1_iti,,,,,,,,,,,1453
,image-keyboard-response,222,471782,0.0-19.0-0.35,,,,,null,img/instructions_color/red.png,null,,test1_cue,img/instructions_color/red.png,,,,,,,,,,
,image-keyboard-response,223,473785,0.0-19.0-1.35,,,,,null,img/color/color_349.png,null,,test1_target,img/instructions_color/red.png,img/color/color_349.png,1,FALSE,,,,,,,
,reconstruct-colorwheel,224,481146,0.0-19.0-2.35,,,,,,,352,,test1_recon,,,,,6337.6,352,"rgba(238, 16, 0, 1)",0.436332313,24,1015.9,
,html-keyboard-response,225,482582,0.0-19.0-3.35,,,,,null,"<p style=""font-size: 30px; font-family: SimSun;"">+</p>",null,,test1_iti,,,,,,,,,,,1420
,image-keyboard-response,226,483091,0.0-19.0-0.36,,,,,null,img/instructions_color/green.png,null,,test1_cue,img/instructions_color/green.png,,,,,,,,,,
,image-keyboard-response,227,483822,0.0-19.0-1.36,,,,,730,img/color/color_222.png,arrowright,,test1_target,img/instructions_color/green.png,img/color/color_222.png,1,TRUE,,,,,,,
,reconstruct-colorwheel,228,489938,0.0-19.0-2.36,,,,,,,205,,test1_recon,,,,,6111.1,205,"rgba(0, 180, 74, 1)",,NaN,0.199999988,
,html-keyboard-response,229,491247,0.0-19.0-3.36,,,,,null,"<p style=""font-size: 30px; font-family: SimSun;"">+</p>",null,,test1_iti,,,,,,,,,,,1298
,image-keyboard-response,230,491757,0.0-19.0-0.37,,,,,null,img/instructions_color/red.png,null,,test1_cue,img/instructions_color/red.png,,,,,,,,,,
,image-keyboard-response,231,492486,0.0-19.0-1.37,,,,,729,img/color/color_331.png,arrowright,,test1_target,img/instructions_color/red.png,img/color/color_331.png,1,TRUE,,,,,,,
,reconstruct-colorwheel,232,497106,0.0-19.0-2.37,,,,,,,28,,test1_recon,,,,,3795.1,28,"rgba(195, 0, 59, 1)",0.261799388,15,819.9,
,html-keyboard-response,233,498360,0.0-19.0-3.37,,,,,null,"<p style=""font-size: 30px; font-family: SimSun;"">+</p>",null,,test1_iti,,,,,,,,,,,1249
,image-keyboard-response,234,498871,0.0-19.0-0.38,,,,,null,img/instructions_color/red.png,null,,test1_cue,img/instructions_color/red.png,,,,,,,,,,
,image-keyboard-response,235,499398,0.0-19.0-1.38,,,,,527,img/color/color_126.png,arrowleft,,test1_target,img/instructions_color/red.png,img/color/color_126.png,0,TRUE,,,,,,,
,reconstruct-colorwheel,236,506527,0.0-19.0-2.38,,,,,,,122,,test1_recon,,,,,5271.6,122,"rgba(0, 4, 250, 1)",0.610865238,35,1852.1,
,html-keyboard-response,237,507684,0.0-19.0-3.38,,,,,null,"<p style=""font-size: 30px; font-family: SimSun;"">+</p>",null,,test1_iti,,,,,,,,,,,1152
,image-keyboard-response,238,508195,0.0-19.0-0.39,,,,,null,img/instructions_color/red.png,null,,test1_cue,img/instructions_color/red.png,,,,,,,,,,
,image-keyboard-response,239,509146,0.0-19.0-1.39,,,,,950,img/color/color_000.png,arrowright,,test1_target,img/instructions_color/red.png,img/color/color_000.png,1,TRUE,,,,,,,
,reconstruct-colorwheel,240,512786,0.0-19.0-2.39,,,,,,,355,,test1_recon,,,,,2599.5,355,"rgba(244, 10, 0, 1)",0.610865238,35,1035.8,
,html-keyboard-response,241,513804,0.0-19.0-3.39,,,,,null,"<p style=""font-size: 30px; font-family: SimSun;"">+</p>",null,,test1_iti,,,,,,,,,,,1006
,image-keyboard-response,242,514319,0.0-19.0-0.40,,,,,null,img/instructions_color/blue.png,null,,test1_cue,img/instructions_color/blue.png,,,,,,,,,,
,image-keyboard-response,243,514998,0.0-19.0-1.40,,,,,678,img/color/color_337.png,arrowleft,,test1_target,img/instructions_color/blue.png,img/color/color_337.png,0,TRUE,,,,,,,
,reconstruct-colorwheel,244,518830,0.0-19.0-2.40,,,,,,,14,,test1_recon,,,,,2550.3,14,"rgba(225, 0, 29, 1)",0.610865238,35,1276.1,
,html-keyboard-response,245,520136,0.0-19.0-3.40,,,,,null,"<p style=""font-size: 30px; font-family: SimSun;"">+</p>",null,,test1_iti,,,,,,,,,,,1301
,image-keyboard-response,246,520650,0.0-19.0-0.41,,,,,null,img/instructions_color/blue.png,null,,test1_cue,img/instructions_color/blue.png,,,,,,,,,,
,image-keyboard-response,247,521578,0.0-19.0-1.41,,,,,927,img/color/color_260.png,arrowleft,,test1_target,img/instructions_color/blue.png,img/color/color_260.png,0,TRUE,,,,,,,
,reconstruct-colorwheel,248,525831,0.0-19.0-2.41,,,,,,,218,,test1_recon,,,,,2778.9,218,"rgba(0, 208, 46, 1)",0.401425728,23,1468.6,
,html-keyboard-response,249,526930,0.0-19.0-3.41,,,,,null,"<p style=""font-size: 30px; font-family: SimSun;"">+</p>",null,,test1_iti,,,,,,,,,,,1085
,image-keyboard-response,250,527439,0.0-19.0-0.42,,,,,null,img/instructions_color/green.png,null,,test1_cue,img/instructions_color/green.png,,,,,,,,,,
,image-keyboard-response,251,528178,0.0-19.0-1.42,,,,,738,img/color/color_266.png,arrowright,,test1_target,img/instructions_color/green.png,img/color/color_266.png,1,TRUE,,,,,,,
,reconstruct-colorwheel,252,535118,0.0-19.0-2.42,,,,,,,275,,test1_recon,,,,,4034.6,275,"rgba(74, 180, 0, 1)",0.261799388,15,2900.9,
,html-keyboard-response,253,536177,0.0-19.0-3.42,,,,,null,"<p style=""font-size: 30px; font-family: SimSun;"">+</p>",null,,test1_iti,,,,,,,,,,,1052
,image-keyboard-response,254,536687,0.0-19.0-0.43,,,,,null,img/instructions_color/green.png,null,,test1_cue,img/instructions_color/green.png,,,,,,,,,,
,image-keyboard-response,255,537458,0.0-19.0-1.43,,,,,770,img/color/color_028.png,arrowleft,,test1_target,img/instructions_color/green.png,img/color/color_028.png,0,TRUE,,,,,,,
,reconstruct-colorwheel,256,544038,0.0-19.0-2.43,,,,,,,37,,test1_recon,,,,,4794.8,37,"rgba(176, 0, 78, 1)",0.506145483,29,1779.9,
,html-keyboard-response,257,545494,0.0-19.0-3.43,,,,,null,"<p style=""font-size: 30px; font-family: SimSun;"">+</p>",null,,test1_iti,,,,,,,,,,,1435
,image-keyboard-response,258,546002,0.0-19.0-0.44,,,,,null,img/instructions_color/green.png,null,,test1_cue,img/instructions_color/green.png,,,,,,,,,,
,image-keyboard-response,259,547826,0.0-19.0-1.44,,,,,1823,img/color/color_117.png,arrowleft,,test1_target,img/instructions_color/green.png,img/color/color_117.png,0,TRUE,,,,,,,
,reconstruct-colorwheel,260,552542,0.0-19.0-2.44,,,,,,,109,,test1_recon,,,,,3022.9,109,"rgba(23, 0, 231, 1)",0.872664626,49,1687.8,
,html-keyboard-response,261,554011,0.0-19.0-3.44,,,,,null,"<p style=""font-size: 30px; font-family: SimSun;"">+</p>",null,,test1_iti,,,,,,,,,,,1463
,image-keyboard-response,262,554520,0.0-19.0-0.45,,,,,null,img/instructions_color/red.png,null,,test1_cue,img/instructions_color/red.png,,,,,,,,,,
,image-keyboard-response,263,555462,0.0-19.0-1.45,,,,,941,img/color/color_230.png,arrowleft,,test1_target,img/instructions_color/red.png,img/color/color_230.png,0,TRUE,,,,,,,
,reconstruct-colorwheel,264,558537,0.0-19.0-2.45,,,,,,,255,,test1_recon,,,,,1934.1,255,"rgba(31, 223, 0, 1)",0.959931089,54,1135.4,
,html-keyboard-response,265,560009,0.0-19.0-3.45,,,,,null,"<p style=""font-size: 30px; font-family: SimSun;"">+</p>",null,,test1_iti,,,,,,,,,,,1461
,image-keyboard-response,266,560521,0.0-19.0-0.46,,,,,null,img/instructions_color/red.png,null,,test1_cue,img/instructions_color/red.png,,,,,,,,,,
,image-keyboard-response,267,561142,0.0-19.0-1.46,,,,,619,img/color/color_343.png,arrowright,,test1_target,img/instructions_color/red.png,img/color/color_343.png,1,TRUE,,,,,,,
,reconstruct-colorwheel,268,565566,0.0-19.0-2.46,,,,,,,2,,test1_recon,,,,,3311.3,2,"rgba(250, 0, 4, 1)",0.959931089,54,1107.8,
,html-keyboard-response,269,566899,0.0-19.0-3.46,,,,,null,"<p style=""font-size: 30px; font-family: SimSun;"">+</p>",null,,test1_iti,,,,,,,,,,,1326
,image-keyboard-response,270,567413,0.0-19.0-0.47,,,,,null,img/instructions_color/red.png,null,,test1_cue,img/instructions_color/red.png,,,,,,,,,,
,image-keyboard-response,271,567981,0.0-19.0-1.47,,,,,568,img/color/color_140.png,arrowleft,,test1_target,img/instructions_color/red.png,img/color/color_140.png,0,TRUE,,,,,,,
,reconstruct-colorwheel,272,573464,0.0-19.0-2.47,,,,,,,114,,test1_recon,,,,,4227.3,114,"rgba(12, 0, 242, 1)",1.221730476,69,1250,
,html-keyboard-response,273,574591,0.0-19.0-3.47,,,,,null,"<p style=""font-size: 30px; font-family: SimSun;"">+</p>",null,,test1_iti,,,,,,,,,,,1115
,image-keyboard-response,274,575103,0.0-19.0-0.48,,,,,null,img/instructions_color/red.png,null,,test1_cue,img/instructions_color/red.png,,,,,,,,,,
,image-keyboard-response,275,576082,0.0-19.0-1.48,,,,,978,img/color/color_357.png,arrowright,,test1_target,img/instructions_color/red.png,img/color/color_357.png,1,TRUE,,,,,,,
,reconstruct-colorwheel,276,579494,0.0-19.0-2.48,,,,,,,358,,test1_recon,,,,,2402,358,"rgba(250, 4, 0, 1)",0.436332313,24,1003.8,
,html-keyboard-response,277,580569,0.0-19.0-3.48,,,,,null,"<p style=""font-size: 30px; font-family: SimSun;"">+</p>",null,,test1_iti,,,,,,,,,,,1062
,image-keyboard-response,278,581082,0.0-19.0-0.49,,,,,null,img/instructions_color/red.png,null,,test1_cue,img/instructions_color/red.png,,,,,,,,,,
,image-keyboard-response,279,583086,0.0-19.0-1.49,,,,,null,img/color/color_013.png,null,,test1_target,img/instructions_color/red.png,img/color/color_013.png,1,FALSE,,,,,,,
,reconstruct-colorwheel,280,588210,0.0-19.0-2.49,,,,,,,3,,test1_recon,,,,,3801.1,3,"rgba(248, 0, 6, 1)",0.698131701,40,1316.2,
,html-keyboard-response,281,589550,0.0-19.0-3.49,,,,,null,"<p style=""font-size: 30px; font-family: SimSun;"">+</p>",null,,test1_iti,,,,,,,,,,,1327
,image-keyboard-response,282,590061,0.0-19.0-0.50,,,,,null,img/instructions_color/blue.png,null,,test1_cue,img/instructions_color/blue.png,,,,,,,,,,
,image-keyboard-response,283,590963,0.0-19.0-1.50,,,,,901,img/color/color_248.png,arrowright,,test1_target,img/instructions_color/blue.png,img/color/color_248.png,0,FALSE,,,,,,,
,reconstruct-colorwheel,284,598002,0.0-19.0-2.50,,,,,,,225,,test1_recon,,,,,6002.5,225,"rgba(0, 223, 31, 1)",0.785398163,45,1030.9,
,html-keyboard-response,285,599463,0.0-19.0-3.50,,,,,null,"<p style=""font-size: 30px; font-family: SimSun;"">+</p>",null,,test1_iti,,,,,,,,,,,1443
,image-keyboard-response,286,599975,0.0-19.0-0.51,,,,,null,img/instructions_color/green.png,null,,test1_cue,img/instructions_color/green.png,,,,,,,,,,
,image-keyboard-response,287,601325,0.0-19.0-1.51,,,,,1349,img/color/color_229.png,arrowright,,test1_target,img/instructions_color/green.png,img/color/color_229.png,1,TRUE,,,,,,,
,reconstruct-colorwheel,288,603810,0.0-19.0-2.51,,,,,,,227,,test1_recon,,,,,1535,227,"rgba(0, 227, 27, 1)",0.785398163,45,944.2,
,html-keyboard-response,289,605186,0.0-19.0-3.51,,,,,null,"<p style=""font-size: 30px; font-family: SimSun;"">+</p>",null,,test1_iti,,,,,,,,,,,1361
,image-keyboard-response,290,605696,0.0-19.0-0.52,,,,,null,img/instructions_color/blue.png,null,,test1_cue,img/instructions_color/blue.png,,,,,,,,,,
,image-keyboard-response,291,606421,0.0-19.0-1.52,,,,,724,img/color/color_331.png,arrowleft,,test1_target,img/instructions_color/blue.png,img/color/color_331.png,0,TRUE,,,,,,,
,reconstruct-colorwheel,292,612978,0.0-19.0-2.52,,,,,,,41,,test1_recon,,,,,5448.2,41,"rgba(167, 0, 87, 1)",0.785398163,45,1102.5,
,html-keyboard-response,293,614353,0.0-19.0-3.52,,,,,null,"<p style=""font-size: 30px; font-family: SimSun;"">+</p>",null,,test1_iti,,,,,,,,,,,1365
,image-keyboard-response,294,614862,0.0-19.0-0.53,,,,,null,img/instructions_color/red.png,null,,test1_cue,img/instructions_color/red.png,,,,,,,,,,
,image-keyboard-response,295,615137,0.0-19.0-1.53,,,,,274,img/color/color_101.png,arrowleft,,test1_target,img/instructions_color/red.png,img/color/color_101.png,0,TRUE,,,,,,,
,reconstruct-colorwheel,296,619542,0.0-19.0-2.53,,,,,,,140,,test1_recon,,,,,3307.1,140,"rgba(0, 42, 212, 1)",0.523598776,29,1091.2,
,html-keyboard-response,297,620910,0.0-19.0-3.53,,,,,null,"<p style=""font-size: 30px; font-family: SimSun;"">+</p>",null,,test1_iti,,,,,,,,,,,1356
,image-keyboard-response,298,621422,0.0-19.0-0.54,,,,,null,img/instructions_color/green.png,null,,test1_cue,img/instructions_color/green.png,,,,,,,,,,
,image-keyboard-response,299,622639,0.0-19.0-1.54,,,,,1216,img/color/color_011.png,arrowleft,,test1_target,img/instructions_color/green.png,img/color/color_011.png,0,TRUE,,,,,,,
,reconstruct-colorwheel,300,628017,0.0-19.0-2.54,,,,,,,272,,test1_recon,,,,,4417.2,272,"rgba(68, 187, 0, 1)",0.698131701,40,955.9,
,html-keyboard-response,301,629441,0.0-19.0-3.54,,,,,null,"<p style=""font-size: 30px; font-family: SimSun;"">+</p>",null,,test1_iti,,,,,,,,,,,1413
,image-keyboard-response,302,629951,0.0-19.0-0.55,,,,,null,img/instructions_color/blue.png,null,,test1_cue,img/instructions_color/blue.png,,,,,,,,,,
,image-keyboard-response,303,631309,0.0-19.0-1.55,,,,,1357,img/color/color_111.png,arrowleft,,test1_target,img/instructions_color/blue.png,img/color/color_111.png,1,FALSE,,,,,,,
,reconstruct-colorwheel,304,636626,0.0-19.0-2.55,,,,,,,110,,test1_recon,,,,,4398.4,110,"rgba(21, 0, 233, 1)",0.610865238,35,913,
,html-keyboard-response,305,638102,0.0-19.0-3.55,,,,,null,"<p style=""font-size: 30px; font-family: SimSun;"">+</p>",null,,test1_iti,,,,,,,,,,,1465
,image-keyboard-response,306,638613,0.0-19.0-0.56,,,,,null,img/instructions_color/blue.png,null,,test1_cue,img/instructions_color/blue.png,,,,,,,,,,
,image-keyboard-response,307,639469,0.0-19.0-1.56,,,,,856,img/color/color_112.png,arrowright,,test1_target,img/instructions_color/blue.png,img/color/color_112.png,1,TRUE,,,,,,,
,reconstruct-colorwheel,308,644989,0.0-19.0-2.56,,,,,,,69,,test1_recon,,,,,3146.5,69,"rgba(108, 0, 146, 1)",0.436332313,24,2367.9,
,html-keyboard-response,309,646469,0.0-19.0-3.56,,,,,null,"<p style=""font-size: 30px; font-family: SimSun;"">+</p>",null,,test1_iti,,,,,,,,,,,1468
,image-keyboard-response,310,646980,0.0-19.0-0.57,,,,,null,img/instructions_color/blue.png,null,,test1_cue,img/instructions_color/blue.png,,,,,,,,,,
,image-keyboard-response,311,647485,0.0-19.0-1.57,,,,,504,img/color/color_217.png,arrowleft,,test1_target,img/instructions_color/blue.png,img/color/color_217.png,0,TRUE,,,,,,,
,reconstruct-colorwheel,312,652121,0.0-19.0-2.57,,,,,,,212,,test1_recon,,,,,3262.7,212,"rgba(0, 195, 59, 1)",0.610865238,35,1368,
,html-keyboard-response,313,653479,0.0-19.0-3.57,,,,,null,"<p style=""font-size: 30px; font-family: SimSun;"">+</p>",null,,test1_iti,,,,,,,,,,,1340
,image-keyboard-response,314,653992,0.0-19.0-0.58,,,,,null,img/instructions_color/red.png,null,,test1_cue,img/instructions_color/red.png,,,,,,,,,,
,image-keyboard-response,315,654570,0.0-19.0-1.58,,,,,576,img/color/color_247.png,arrowleft,,test1_target,img/instructions_color/red.png,img/color/color_247.png,0,TRUE,,,,,,,
,reconstruct-colorwheel,316,659142,0.0-19.0-2.58,,,,,,,240,,test1_recon,,,,,3427.8,240,"rgba(0, 255, 0, 1)",0.959931089,54,1138.2,
,html-keyboard-response,317,660587,0.0-19.0-3.58,,,,,null,"<p style=""font-size: 30px; font-family: SimSun;"">+</p>",null,,test1_iti,,,,,,,,,,,1439
,image-keyboard-response,318,661098,0.0-19.0-0.59,,,,,null,img/instructions_color/blue.png,null,,test1_cue,img/instructions_color/blue.png,,,,,,,,,,
,image-keyboard-response,319,661729,0.0-19.0-1.59,,,,,630,img/color/color_095.png,arrowright,,test1_target,img/instructions_color/blue.png,img/color/color_095.png,1,TRUE,,,,,,,
,reconstruct-colorwheel,320,665062,0.0-19.0-2.59,,,,,,,114,,test1_recon,,,,,2255.8,114,"rgba(12, 0, 242, 1)",0.785398163,45,1067.4,
,html-keyboard-response,321,666130,0.0-19.0-3.59,,,,,null,"<p style=""font-size: 30px; font-family: SimSun;"">+</p>",null,,test1_iti,,,,,,,,,,,1058
,image-keyboard-response,322,667274,0.0-20.0,,,,,1142,img/instructions_color/test3.png, ,,,,,,,,,,,,,
