"success","trial_type","trial_index","time_elapsed","internal_node_id","timeout","failed_images","failed_audio","failed_video","rt","stimulus","response","order","type","cue","target","condition","correct","search_rt","img_angle","color","uncertainty_half_range","uncertainty_half_range_image","uncertainty_rt","trial_duration"
"true","fullscreen","0","1999","0.0-0.0","","","","","","","","","","","","","","","","","","","",""
"true","preload","1","2067","0.0-1.0","false","[]","[]","[]","","","","","","","","","","","","","","","",""
"","image-keyboard-response","2","2982","0.0-2.0","","","","","912","img/instructions_scene/info.png","arrowright","","","","","","","","","","","","",""
"","survey-html-form","3","6095","0.0-3.0","","","","","3112","","{""subj_idx"":""000""}","0","","","","","","","","","","","",""
"","survey-html-form","4","6934","0.0-4.0","","","","","839","","{""Born"":""1990""}","","","","","","","","","","","","",""
"","survey-html-form","5","7992","0.0-5.0","","","","","1057","","{""sex"":""1""}","","","","","","","","","","","","",""
"","survey-html-form","6","9065","0.0-6.0","","","","","1072","","{""education"":""5""}","","","","","","","","","","","","",""
"","image-keyboard-response","7","11805","0.0-7.0-0.0","","","","","2740","img/instructions_scene/intro1.png","arrowright","","","","","","","","","","","","",""
"","image-keyboard-response","8","14741","0.0-7.0-0.1","","","","","2934","img/instructions_scene/intro2.png","arrowleft","","","","","","","","","","","","",""
"","image-keyboard-response","9","16602","0.0-7.0-0.2","","","","","1860","img/instructions_scene/intro31.png","arrowleft","","","","","","","","","","","","",""
"","image-keyboard-response","10","17513","0.0-7.0-0.3","","","","","911","img/instructions_scene/intro4.png","arrowleft","","","","","","","","","","","","",""
"","image-keyboard-response","11","18837","0.0-7.0-0.4","","","","","1323","img/instructions_scene/intro5.png","arrowleft","","","","","","","","","","","","",""
"","image-keyboard-response","12","20217","0.0-7.0-0.5","","","","","1379","img/instructions_scene/intro6.png","arrowleft","","","","","","","","","","","","",""
"","image-keyboard-response","13","21121","0.0-8.0","","","","","904","img/instructions_scene/example1.png","arrowleft","","","","","","","","","","","","",""
"","html-keyboard-response","14","21634","0.0-9.0-0.0","","","","","null","<p style=""font-size: 30px; font-family: SimSun;"">+</p>","null","","","","","","","","","","","","",""
"","image-keyboard-response","15","22148","0.0-9.0-1.0","","","","","null","img/instructions_scene/bedroom.png","null","","example_cue","img/instructions_scene/bedroom.png","","","","","","","","","",""
"","image-keyboard-response","16","22864","0.0-9.0-2.0","","","","","715","img/sceneWheel_images_webp/Wheel04/wheel04_r32/000356.webp","arrowleft","","example_target","img/instructions_scene/bedroom.png","img/sceneWheel_images_webp/Wheel04/wheel04_r32/000356.webp","0","false","","","","","","",""
"","reconstruct-wheel","17","46141","0.0-9.0-3.0","","","","","","","000341","","example_recon","","","","","21940.600000023842","341","","0.2617993877991496","15","1335",""
"","image-keyboard-response","18","47797","0.0-9.0-4.0","","","","","1653","img/instructions_scene/example2.png","arrowright","","example_confirmation","","","","","","","","","","",""
"","image-keyboard-response","19","91071","0.0-10.0","","","","","43273","img/instructions_scene/prac1.png","arrowleft","","","","","","","","","","","","",""
"","image-keyboard-response","20","91577","0.0-11.0-0.0","","","","","null","img/instructions_scene/restaurant.png","null","","prac_cue","img/instructions_scene/restaurant.png","","","","","","","","","",""
"","image-keyboard-response","21","92333","0.0-11.0-1.0","","","","","754","img/sceneWheel_images_webp/Wheel04/wheel04_r32/000346.webp","arrowright","","prac_target","img/instructions_scene/restaurant.png","img/sceneWheel_images_webp/Wheel04/wheel04_r32/000346.webp","0","true","","","","","","",""
"","reconstruct-wheel","22","110185","0.0-11.0-2.0","","","","","","","000309","","prac_recon","","","","","15994.699999988079","309","","0.5410520681182422","31","1855.7000000476837",""
"","html-keyboard-response","23","111785","0.0-11.0-3.0","","","","","1595","<p style='font-size: 30px; font-family: SimSun;'>你当前的正确率为 <strong>100%</strong></p> <p style='font-size: 30px; font-family: SimSun;'>按任意键结束</p>","arrowleft","","prac_feedback","","","","100","","","","","","",""
"","html-keyboard-response","24","112886","0.0-11.0-4.0","","","","","null","<p style=""font-size: 30px; font-family: SimSun;"">+</p>","null","","prac_iti","","","","","","","","","","","1097"
"","image-keyboard-response","25","113399","0.0-11.0-0.1","","","","","null","img/instructions_scene/bedroom.png","null","","prac_cue","img/instructions_scene/bedroom.png","","","","","","","","","",""
"","image-keyboard-response","26","114129","0.0-11.0-1.1","","","","","729","img/sceneWheel_images_webp/Wheel04/wheel04_r32/000141.webp","arrowright","","prac_target","img/instructions_scene/bedroom.png","img/sceneWheel_images_webp/Wheel04/wheel04_r32/000141.webp","1","false","","","","","","",""
"","reconstruct-wheel","27","124744","0.0-11.0-2.1","","","","","","","000125","","prac_recon","","","","","8371.399999976158","125","","0.5585053606381858","32","2240.100000023842",""
"","html-keyboard-response","28","126516","0.0-11.0-3.1","","","","","1769","<p style='font-size: 30px; font-family: SimSun;'>你当前的正确率为 <strong>50%</strong></p> <p style='font-size: 30px; font-family: SimSun;'>按任意键结束</p>","arrowright","","prac_feedback","","","","50","","","","","","",""
"","html-keyboard-response","29","127951","0.0-11.0-4.1","","","","","null","<p style=""font-size: 30px; font-family: SimSun;"">+</p>","null","","prac_iti","","","","","","","","","","","1426"
"","image-keyboard-response","30","128453","0.0-11.0-0.2","","","","","null","img/instructions_scene/bedroom.png","null","","prac_cue","img/instructions_scene/bedroom.png","","","","","","","","","",""
"","image-keyboard-response","31","129076","0.0-11.0-1.2","","","","","623","img/sceneWheel_images_webp/Wheel04/wheel04_r32/000211.webp","arrowright","","prac_target","img/instructions_scene/bedroom.png","img/sceneWheel_images_webp/Wheel04/wheel04_r32/000211.webp","0","true","","","","","","",""
"","reconstruct-wheel","32","138705","0.0-11.0-2.2","","","","","","","000168","","prac_recon","","","","","6590.100000023842","168","","0.6806784082777888","39","3036.5",""
"","html-keyboard-response","33","139704","0.0-11.0-3.2","","","","","996","<p style='font-size: 30px; font-family: SimSun;'>你当前的正确率为 <strong>67%</strong></p> <p style='font-size: 30px; font-family: SimSun;'>按任意键结束</p>","arrowleft","","prac_feedback","","","","67","","","","","","",""
"","html-keyboard-response","34","141049","0.0-11.0-4.2","","","","","null","<p style=""font-size: 30px; font-family: SimSun;"">+</p>","null","","prac_iti","","","","","","","","","","","1342"
"","image-keyboard-response","35","141561","0.0-11.0-0.3","","","","","null","img/instructions_scene/restaurant.png","null","","prac_cue","img/instructions_scene/restaurant.png","","","","","","","","","",""
"","image-keyboard-response","36","142168","0.0-11.0-1.3","","","","","606","img/sceneWheel_images_webp/Wheel04/wheel04_r32/000241.webp","arrowleft","","prac_target","img/instructions_scene/restaurant.png","img/sceneWheel_images_webp/Wheel04/wheel04_r32/000241.webp","1","true","","","","","","",""
"","reconstruct-wheel","37","156148","0.0-11.0-2.3","","","","","","","000243","","prac_recon","","","","","11942.200000047684","243","","0.4712388980384694","27","2036",""
"","html-keyboard-response","38","157416","0.0-11.0-3.3","","","","","1264","<p style='font-size: 30px; font-family: SimSun;'>你当前的正确率为 <strong>75%</strong></p> <p style='font-size: 30px; font-family: SimSun;'>按任意键结束</p>","arrowleft","","prac_feedback","","","","75","","","","","","",""
"","html-keyboard-response","39","158824","0.0-11.0-4.3","","","","","null","<p style=""font-size: 30px; font-family: SimSun;"">+</p>","null","","prac_iti","","","","","","","","","","","1398"
"","image-keyboard-response","40","159336","0.0-11.0-0.4","","","","","null","img/instructions_scene/dinningroom.png","null","","prac_cue","img/instructions_scene/dinningroom.png","","","","","","","","","",""
"","image-keyboard-response","41","159864","0.0-11.0-1.4","","","","","527","img/sceneWheel_images_webp/Wheel04/wheel04_r32/000129.webp","arrowright","","prac_target","img/instructions_scene/dinningroom.png","img/sceneWheel_images_webp/Wheel04/wheel04_r32/000129.webp","0","true","","","","","","",""
"","reconstruct-wheel","42","166732","0.0-11.0-2.4","","","","","","","000124","","prac_recon","","","","","5213.5","124","","0.506145483078356","29","1651.6000000238419",""
"","html-keyboard-response","43","167792","0.0-11.0-3.4","","","","","1056","<p style='font-size: 30px; font-family: SimSun;'>你当前的正确率为 <strong>80%</strong></p> <p style='font-size: 30px; font-family: SimSun;'>按任意键结束</p>","arrowleft","","prac_feedback","","","","80","","","","","","",""
"","html-keyboard-response","44","168828","0.0-11.0-4.4","","","","","null","<p style=""font-size: 30px; font-family: SimSun;"">+</p>","null","","prac_iti","","","","","","","","","","","1025"
"","image-keyboard-response","45","169339","0.0-11.0-0.5","","","","","null","img/instructions_scene/dinningroom.png","null","","prac_cue","img/instructions_scene/dinningroom.png","","","","","","","","","",""
"","image-keyboard-response","46","169868","0.0-11.0-1.5","","","","","529","img/sceneWheel_images_webp/Wheel04/wheel04_r32/000017.webp","arrowleft","","prac_target","img/instructions_scene/dinningroom.png","img/sceneWheel_images_webp/Wheel04/wheel04_r32/000017.webp","1","true","","","","","","",""
"","reconstruct-wheel","47","190421","0.0-11.0-2.5","","","","","","","000014","","prac_recon","","","","","19237.899999976158","14","","0.43633231299858233","24","1312",""
"","html-keyboard-response","48","191344","0.0-11.0-3.5","","","","","917","<p style='font-size: 30px; font-family: SimSun;'>你当前的正确率为 <strong>83%</strong></p> <p style='font-size: 30px; font-family: SimSun;'>按任意键结束</p>","arrowleft","","prac_feedback","","","","83","","","","","","",""
"","html-keyboard-response","49","192378","0.0-11.0-4.5","","","","","null","<p style=""font-size: 30px; font-family: SimSun;"">+</p>","null","","prac_iti","","","","","","","","","","","1023"
"","image-keyboard-response","50","192886","0.0-11.0-0.6","","","","","null","img/instructions_scene/dinningroom.png","null","","prac_cue","img/instructions_scene/dinningroom.png","","","","","","","","","",""
"","image-keyboard-response","51","193600","0.0-11.0-1.6","","","","","713","img/sceneWheel_images_webp/Wheel04/wheel04_r32/000211.webp","arrowright","","prac_target","img/instructions_scene/dinningroom.png","img/sceneWheel_images_webp/Wheel04/wheel04_r32/000211.webp","0","true","","","","","","",""
"","reconstruct-wheel","52","219465","0.0-11.0-2.6","","","","","","","000217","","prac_recon","","","","","24494.19999998808","217","","0.7853981633974483","45","1367.300000011921",""
"","html-keyboard-response","53","220360","0.0-11.0-3.6","","","","","883","<p style='font-size: 30px; font-family: SimSun;'>你当前的正确率为 <strong>86%</strong></p> <p style='font-size: 30px; font-family: SimSun;'>按任意键结束</p>","arrowleft","","prac_feedback","","","","86","","","","","","",""
"","html-keyboard-response","54","221483","0.0-11.0-4.6","","","","","null","<p style=""font-size: 30px; font-family: SimSun;"">+</p>","null","","prac_iti","","","","","","","","","","","1119"
"","image-keyboard-response","55","221994","0.0-11.0-0.7","","","","","null","img/instructions_scene/bedroom.png","null","","prac_cue","img/instructions_scene/bedroom.png","","","","","","","","","",""
"","image-keyboard-response","56","222608","0.0-11.0-1.7","","","","","613","img/sceneWheel_images_webp/Wheel04/wheel04_r32/000002.webp","arrowright","","prac_target","img/instructions_scene/bedroom.png","img/sceneWheel_images_webp/Wheel04/wheel04_r32/000002.webp","0","true","","","","","","",""
"","reconstruct-wheel","57","230896","0.0-11.0-2.7","","","","","","","000012","","prac_recon","","","","","5776.5","12","","0.8726646259971655","50","2508.199999988079",""
"","html-keyboard-response","58","231792","0.0-11.0-3.7","","","","","892","<p style='font-size: 30px; font-family: SimSun;'>你当前的正确率为 <strong>88%</strong></p> <p style='font-size: 30px; font-family: SimSun;'>按任意键结束</p>"," ","","prac_feedback","","","","88","","","","","","",""
"","html-keyboard-response","59","233213","0.0-11.0-4.7","","","","","null","<p style=""font-size: 30px; font-family: SimSun;"">+</p>","null","","prac_iti","","","","","","","","","","","1417"
"","image-keyboard-response","60","233724","0.0-11.0-0.8","","","","","null","img/instructions_scene/restaurant.png","null","","prac_cue","img/instructions_scene/restaurant.png","","","","","","","","","",""
"","image-keyboard-response","61","234760","0.0-11.0-1.8","","","","","1035","img/sceneWheel_images_webp/Wheel04/wheel04_r32/000113.webp","arrowright","","prac_target","img/instructions_scene/restaurant.png","img/sceneWheel_images_webp/Wheel04/wheel04_r32/000113.webp","0","true","","","","","","",""
"","reconstruct-wheel","62","242593","0.0-11.0-2.8","","","","","","","000127","","prac_recon","","","","","5695.600000023842","127","","0.6108652381980155","35","2133.300000011921",""
"","html-keyboard-response","63","243428","0.0-11.0-3.8","","","","","832","<p style='font-size: 30px; font-family: SimSun;'>你当前的正确率为 <strong>89%</strong></p> <p style='font-size: 30px; font-family: SimSun;'>按任意键结束</p>","arrowright","","prac_feedback","","","","89","","","","","","",""
"","html-keyboard-response","64","244798","0.0-11.0-4.8","","","","","null","<p style=""font-size: 30px; font-family: SimSun;"">+</p>","null","","prac_iti","","","","","","","","","","","1361"
"","image-keyboard-response","65","245310","0.0-11.0-0.9","","","","","null","img/instructions_scene/restaurant.png","null","","prac_cue","img/instructions_scene/restaurant.png","","","","","","","","","",""
"","image-keyboard-response","66","245396","0.0-11.0-1.9","","","","","85","img/sceneWheel_images_webp/Wheel04/wheel04_r32/000268.webp","arrowleft","","prac_target","img/instructions_scene/restaurant.png","img/sceneWheel_images_webp/Wheel04/wheel04_r32/000268.webp","1","true","","","","","","",""
"","reconstruct-wheel","67","251288","0.0-11.0-2.9","","","","","","","000133","","prac_recon","","","","","4264.699999988079","133","","0.43633231299858277","25","1624",""
"","html-keyboard-response","68","251868","0.0-11.0-3.9","","","","","574","<p style='font-size: 30px; font-family: SimSun;'>你当前的正确率为 <strong>90%</strong></p> <p style='font-size: 30px; font-family: SimSun;'>按任意键结束</p>","arrowright","","prac_feedback","","","","90","","","","","","",""
"","html-keyboard-response","69","253359","0.0-11.0-4.9","","","","","null","<p style=""font-size: 30px; font-family: SimSun;"">+</p>","null","","prac_iti","","","","","","","","","","","1476"
"","image-keyboard-response","70","253873","0.0-11.0-0.10","","","","","null","img/instructions_scene/dinningroom.png","null","","prac_cue","img/instructions_scene/dinningroom.png","","","","","","","","","",""
"","image-keyboard-response","71","254497","0.0-11.0-1.10","","","","","623","img/sceneWheel_images_webp/Wheel04/wheel04_r32/000122.webp","arrowleft","","prac_target","img/instructions_scene/dinningroom.png","img/sceneWheel_images_webp/Wheel04/wheel04_r32/000122.webp","0","false","","","","","","",""
"","reconstruct-wheel","72","262909","0.0-11.0-2.10","","","","","","","000125","","prac_recon","","","","","7313.700000047684","125","","1.0471975511965974","59","1094.699999988079",""
"","html-keyboard-response","73","263920","0.0-11.0-3.10","","","","","1006","<p style='font-size: 30px; font-family: SimSun;'>你当前的正确率为 <strong>82%</strong></p> <p style='font-size: 30px; font-family: SimSun;'>按任意键结束</p>","arrowright","","prac_feedback","","","","82","","","","","","",""
"","html-keyboard-response","74","265244","0.0-11.0-4.10","","","","","null","<p style=""font-size: 30px; font-family: SimSun;"">+</p>","null","","prac_iti","","","","","","","","","","","1317"
"","image-keyboard-response","75","265755","0.0-11.0-0.11","","","","","null","img/instructions_scene/bedroom.png","null","","prac_cue","img/instructions_scene/bedroom.png","","","","","","","","","",""
"","image-keyboard-response","76","266304","0.0-11.0-1.11","","","","","548","img/sceneWheel_images_webp/Wheel04/wheel04_r32/000002.webp","arrowright","","prac_target","img/instructions_scene/bedroom.png","img/sceneWheel_images_webp/Wheel04/wheel04_r32/000002.webp","0","true","","","","","","",""
"","reconstruct-wheel","77","277856","0.0-11.0-2.11","","","","","","","000016","","prac_recon","","","","","10278.400000035763","16","","0.7853981633974483","45","1267.5",""
"","html-keyboard-response","78","278648","0.0-11.0-3.11","","","","","782","<p style='font-size: 30px; font-family: SimSun;'>你当前的正确率为 <strong>83%</strong></p> <p style='font-size: 30px; font-family: SimSun;'>按任意键结束</p>","arrowright","","prac_feedback","","","","83","","","","","","",""
"","html-keyboard-response","79","279861","0.0-11.0-4.11","","","","","null","<p style=""font-size: 30px; font-family: SimSun;"">+</p>","null","","prac_iti","","","","","","","","","","","1201"
"","image-keyboard-response","80","310264","0.0-12.0","","","","","30402","img/instructions_scene/prac2.png"," ","","","","","","","","","","","","",""
"","image-keyboard-response","81","315435","0.0-13.0","","","","","5171","img/instructions_scene/test1.png"," ","","","","","","","","","","","","",""
"","image-keyboard-response","82","315946","0.0-14.0-0.0","","","","","null","img/instructions_scene/restaurant.png","null","","test1_cue","img/instructions_scene/restaurant.png","","","","","","","","","",""
"","image-keyboard-response","83","316683","0.0-14.0-1.0","","","","","737","img/sceneWheel_images_webp/Wheel04/wheel04_r32/000092.webp","arrowleft","","test1_target","img/instructions_scene/restaurant.png","img/sceneWheel_images_webp/Wheel04/wheel04_r32/000092.webp","0","false","","","","","","",""
"","reconstruct-wheel","84","329220","0.0-14.0-2.0","","","","","","","000188","","test1_recon","","","","","11462","188","","0.8726646259971647","49","1067.300000011921",""
"","html-keyboard-response","85","330565","0.0-14.0-3.0","","","","","null","<p style=""font-size: 30px; font-family: SimSun;"">+</p>","null","","test1_iti","","","","","","","","","","","1330"
"","image-keyboard-response","86","331076","0.0-14.0-0.1","","","","","null","img/instructions_scene/restaurant.png","null","","test1_cue","img/instructions_scene/restaurant.png","","","","","","","","","",""
"","image-keyboard-response","87","331639","0.0-14.0-1.1","","","","","562","img/sceneWheel_images_webp/Wheel04/wheel04_r32/000021.webp","arrowright","","test1_target","img/instructions_scene/restaurant.png","img/sceneWheel_images_webp/Wheel04/wheel04_r32/000021.webp","0","true","","","","","","",""
"","reconstruct-wheel","88","337404","0.0-14.0-2.1","","","","","","","000021","","test1_recon","","","","","4744.300000011921","21","","0.8726646259971647","49","1016",""
"","html-keyboard-response","89","338439","0.0-14.0-3.1","","","","","null","<p style=""font-size: 30px; font-family: SimSun;"">+</p>","null","","test1_iti","","","","","","","","","","","1024"
"","image-keyboard-response","90","338954","0.0-14.0-0.2","","","","","null","img/instructions_scene/dinningroom.png","null","","test1_cue","img/instructions_scene/dinningroom.png","","","","","","","","","",""
"","image-keyboard-response","91","339819","0.0-14.0-1.2","","","","","865","img/sceneWheel_images_webp/Wheel04/wheel04_r32/000214.webp","arrowright","","test1_target","img/instructions_scene/dinningroom.png","img/sceneWheel_images_webp/Wheel04/wheel04_r32/000214.webp","0","true","","","","","","",""
"","reconstruct-wheel","92","348917","0.0-14.0-2.2","","","","","","","000175","","test1_recon","","","","","7661.800000011921","175","","0.959931088596881","54","1429.199999988079",""
"","html-keyboard-response","93","350389","0.0-14.0-3.2","","","","","null","<p style=""font-size: 30px; font-family: SimSun;"">+</p>","null","","test1_iti","","","","","","","","","","","1454"
"","image-keyboard-response","94","350903","0.0-14.0-0.3","","","","","null","img/instructions_scene/restaurant.png","null","","test1_cue","img/instructions_scene/restaurant.png","","","","","","","","","",""
"","image-keyboard-response","95","351752","0.0-14.0-1.3","","","","","848","img/sceneWheel_images_webp/Wheel04/wheel04_r32/000228.webp","arrowleft","","test1_target","img/instructions_scene/restaurant.png","img/sceneWheel_images_webp/Wheel04/wheel04_r32/000228.webp","1","true","","","","","","",""
"","reconstruct-wheel","96","359075","0.0-14.0-2.3","","","","","","","000193","","test1_recon","","","","","5363.800000011921","193","","0.45378560551852587","26","1956",""
"","html-keyboard-response","97","360198","0.0-14.0-3.3","","","","","null","<p style=""font-size: 30px; font-family: SimSun;"">+</p>","null","","test1_iti","","","","","","","","","","","1107"
"","image-keyboard-response","98","360711","0.0-14.0-0.4","","","","","null","img/instructions_scene/restaurant.png","null","","test1_cue","img/instructions_scene/restaurant.png","","","","","","","","","",""
"","image-keyboard-response","99","362203","0.0-14.0-1.4","","","","","1492","img/sceneWheel_images_webp/Wheel04/wheel04_r32/000242.webp","arrowright","","test1_target","img/instructions_scene/restaurant.png","img/sceneWheel_images_webp/Wheel04/wheel04_r32/000242.webp","1","false","","","","","","",""
"","reconstruct-wheel","100","387103","0.0-14.0-2.4","","","","","","","000244","","test1_recon","","","","","23192.30000001192","244","","0.3839724354387526","22","1703.300000011921",""
"","html-keyboard-response","101","388479","0.0-14.0-3.4","","","","","null","<p style=""font-size: 30px; font-family: SimSun;"">+</p>","null","","test1_iti","","","","","","","","","","","1356"
"","image-keyboard-response","102","388992","0.0-14.0-0.5","","","","","null","img/instructions_scene/dinningroom.png","null","","test1_cue","img/instructions_scene/dinningroom.png","","","","","","","","","",""
"","image-keyboard-response","103","389764","0.0-14.0-1.5","","","","","771","img/sceneWheel_images_webp/Wheel04/wheel04_r32/000124.webp","arrowleft","","test1_target","img/instructions_scene/dinningroom.png","img/sceneWheel_images_webp/Wheel04/wheel04_r32/000124.webp","0","false","","","","","","",""
"","reconstruct-wheel","104","394116","0.0-14.0-2.5","","","","","","","000117","","test1_recon","","","","","2779.600000023842","117","","0.41887902047863923","24","1568",""
"","html-keyboard-response","105","395319","0.0-14.0-3.5","","","","","null","<p style=""font-size: 30px; font-family: SimSun;"">+</p>","null","","test1_iti","","","","","","","","","","","1185"
"","image-keyboard-response","106","395831","0.0-14.0-0.6","","","","","null","img/instructions_scene/dinningroom.png","null","","test1_cue","img/instructions_scene/dinningroom.png","","","","","","","","","",""
"","image-keyboard-response","107","396468","0.0-14.0-1.6","","","","","636","img/sceneWheel_images_webp/Wheel04/wheel04_r32/000245.webp","arrowright","","test1_target","img/instructions_scene/dinningroom.png","img/sceneWheel_images_webp/Wheel04/wheel04_r32/000245.webp","0","true","","","","","","",""
"","reconstruct-wheel","108","414328","0.0-14.0-2.6","","","","","","","000244","","test1_recon","","","","","16331.699999988079","244","","0.2617993877991496","15","1524.1000000238419",""
"","html-keyboard-response","109","415370","0.0-14.0-3.6","","","","","null","<p style=""font-size: 30px; font-family: SimSun;"">+</p>","null","","test1_iti","","","","","","","","","","","1030"
"","image-keyboard-response","110","415881","0.0-14.0-0.7","","","","","null","img/instructions_scene/bedroom.png","null","","test1_cue","img/instructions_scene/bedroom.png","","","","","","","","","",""
"","image-keyboard-response","111","416467","0.0-14.0-1.7","","","","","585","img/sceneWheel_images_webp/Wheel04/wheel04_r32/000345.webp","arrowright","","test1_target","img/instructions_scene/bedroom.png","img/sceneWheel_images_webp/Wheel04/wheel04_r32/000345.webp","0","true","","","","","","",""
"","reconstruct-wheel","112","423740","0.0-14.0-2.7","","","","","","","000019","","test1_recon","","","","","5223.300000011921","19","","0.5934119456780724","34","2043.8999999761581",""
"","html-keyboard-response","113","424784","0.0-14.0-3.7","","","","","null","<p style=""font-size: 30px; font-family: SimSun;"">+</p>","null","","test1_iti","","","","","","","","","","","1021"
"","image-keyboard-response","114","425295","0.0-14.0-0.8","","","","","null","img/instructions_scene/restaurant.png","null","","test1_cue","img/instructions_scene/restaurant.png","","","","","","","","","",""
"","image-keyboard-response","115","426043","0.0-14.0-1.8","","","","","748","img/sceneWheel_images_webp/Wheel04/wheel04_r32/000218.webp","arrowleft","","test1_target","img/instructions_scene/restaurant.png","img/sceneWheel_images_webp/Wheel04/wheel04_r32/000218.webp","1","true","","","","","","",""
"","reconstruct-wheel","116","432600","0.0-14.0-2.8","","","","","","","000225","","test1_recon","","","","","5023","225","","0.3665191429188095","21","1527.699999988079",""
"","html-keyboard-response","117","433648","0.0-14.0-3.8","","","","","null","<p style=""font-size: 30px; font-family: SimSun;"">+</p>","null","","test1_iti","","","","","","","","","","","1037"
"","image-keyboard-response","118","434164","0.0-14.0-0.9","","","","","null","img/instructions_scene/restaurant.png","null","","test1_cue","img/instructions_scene/restaurant.png","","","","","","","","","",""
"","image-keyboard-response","119","435396","0.0-14.0-1.9","","","","","1230","img/sceneWheel_images_webp/Wheel04/wheel04_r32/000267.webp","arrowright","","test1_target","img/instructions_scene/restaurant.png","img/sceneWheel_images_webp/Wheel04/wheel04_r32/000267.webp","1","false","","","","","","",""
"","reconstruct-wheel","120","443512","0.0-14.0-2.9","","","","","","","000257","","test1_recon","","","","","6343.599999964237","257","","0.34906585039886595","20","1768",""
"","html-keyboard-response","121","444831","0.0-14.0-3.9","","","","","null","<p style=""font-size: 30px; font-family: SimSun;"">+</p>","null","","test1_iti","","","","","","","","","","","1308"
"","image-keyboard-response","122","445343","0.0-14.0-0.10","","","","","null","img/instructions_scene/dinningroom.png","null","","test1_cue","img/instructions_scene/dinningroom.png","","","","","","","","","",""
"","image-keyboard-response","123","447283","0.0-14.0-1.10","","","","","1940","img/sceneWheel_images_webp/Wheel04/wheel04_r32/000349.webp","arrowleft","","test1_target","img/instructions_scene/dinningroom.png","img/sceneWheel_images_webp/Wheel04/wheel04_r32/000349.webp","1","true","","","","","","",""
"","reconstruct-wheel","124","452624","0.0-14.0-2.10","","","","","","","000019","","test1_recon","","","","","3431.400000035763","19","","0.5759586531581293","33","1903.8999999761581",""
"","html-keyboard-response","125","454071","0.0-14.0-3.10","","","","","null","<p style=""font-size: 30px; font-family: SimSun;"">+</p>","null","","test1_iti","","","","","","","","","","","1436"
"","image-keyboard-response","126","454583","0.0-14.0-0.11","","","","","null","img/instructions_scene/restaurant.png","null","","test1_cue","img/instructions_scene/restaurant.png","","","","","","","","","",""
"","image-keyboard-response","127","454881","0.0-14.0-1.11","","","","","297","img/sceneWheel_images_webp/Wheel04/wheel04_r32/000359.webp","arrowright","","test1_target","img/instructions_scene/restaurant.png","img/sceneWheel_images_webp/Wheel04/wheel04_r32/000359.webp","0","true","","","","","","",""
"","reconstruct-wheel","128","470336","0.0-14.0-2.11","","","","","","","000021","","test1_recon","","","","","13591.399999976158","21","","0.5759586531581293","33","1856.2000000476837",""
"","html-keyboard-response","129","471563","0.0-14.0-3.11","","","","","null","<p style=""font-size: 30px; font-family: SimSun;"">+</p>","null","","test1_iti","","","","","","","","","","","1207"
"","image-keyboard-response","130","472076","0.0-14.0-0.12","","","","","null","img/instructions_scene/bedroom.png","null","","test1_cue","img/instructions_scene/bedroom.png","","","","","","","","","",""
"","image-keyboard-response","131","473015","0.0-14.0-1.12","","","","","938","img/sceneWheel_images_webp/Wheel04/wheel04_r32/000011.webp","arrowright","","test1_target","img/instructions_scene/bedroom.png","img/sceneWheel_images_webp/Wheel04/wheel04_r32/000011.webp","0","true","","","","","","",""
"","reconstruct-wheel","132","486769","0.0-14.0-2.12","","","","","","","000025","","test1_recon","","","","","12143.800000011921","25","","0.43633231299858277","25","1604.8999999761581",""
"","html-keyboard-response","133","487916","0.0-14.0-3.12","","","","","null","<p style=""font-size: 30px; font-family: SimSun;"">+</p>","null","","test1_iti","","","","","","","","","","","1124"
"","image-keyboard-response","134","488430","0.0-14.0-0.13","","","","","null","img/instructions_scene/bedroom.png","null","","test1_cue","img/instructions_scene/bedroom.png","","","","","","","","","",""
"","image-keyboard-response","135","489487","0.0-14.0-1.13","","","","","1056","img/sceneWheel_images_webp/Wheel04/wheel04_r32/000242.webp","arrowleft","","test1_target","img/instructions_scene/bedroom.png","img/sceneWheel_images_webp/Wheel04/wheel04_r32/000242.webp","0","false","","","","","","",""
"","reconstruct-wheel","136","500979","0.0-14.0-2.13","","","","","","","000234","","test1_recon","","","","","9791","234","","0.4886921905584125","28","1695.6000000238419",""
"","html-keyboard-response","137","502472","0.0-14.0-3.13","","","","","null","<p style=""font-size: 30px; font-family: SimSun;"">+</p>","null","","test1_iti","","","","","","","","","","","1478"
"","image-keyboard-response","138","502986","0.0-14.0-0.14","","","","","null","img/instructions_scene/dinningroom.png","null","","test1_cue","img/instructions_scene/dinningroom.png","","","","","","","","","",""
"","image-keyboard-response","139","503747","0.0-14.0-1.14","","","","","760","img/sceneWheel_images_webp/Wheel04/wheel04_r32/000110.webp","arrowleft","","test1_target","img/instructions_scene/dinningroom.png","img/sceneWheel_images_webp/Wheel04/wheel04_r32/000110.webp","0","false","","","","","","",""
"","reconstruct-wheel","140","508411","0.0-14.0-2.14","","","","","","","000142","","test1_recon","","","","","3013.199999988079","142","","0.4712388980384694","27","1644",""
"","html-keyboard-response","141","509519","0.0-14.0-3.14","","","","","null","<p style=""font-size: 30px; font-family: SimSun;"">+</p>","null","","test1_iti","","","","","","","","","","","1094"
"","image-keyboard-response","142","510030","0.0-14.0-0.15","","","","","null","img/instructions_scene/dinningroom.png","null","","test1_cue","img/instructions_scene/dinningroom.png","","","","","","","","","",""
"","image-keyboard-response","143","510599","0.0-14.0-1.15","","","","","568","img/sceneWheel_images_webp/Wheel04/wheel04_r32/000023.webp","arrowleft","","test1_target","img/instructions_scene/dinningroom.png","img/sceneWheel_images_webp/Wheel04/wheel04_r32/000023.webp","1","true","","","","","","",""
"","reconstruct-wheel","144","520683","0.0-14.0-2.15","","","","","","","000014","","test1_recon","","","","","8933.699999988079","14","","0.43633231299858233","24","1144.2000000476837",""
"","html-keyboard-response","145","521840","0.0-14.0-3.15","","","","","null","<p style=""font-size: 30px; font-family: SimSun;"">+</p>","null","","test1_iti","","","","","","","","","","","1142"
"","image-keyboard-response","146","522351","0.0-14.0-0.16","","","","","null","img/instructions_scene/restaurant.png","null","","test1_cue","img/instructions_scene/restaurant.png","","","","","","","","","",""
"","image-keyboard-response","147","522955","0.0-14.0-1.16","","","","","603","img/sceneWheel_images_webp/Wheel04/wheel04_r32/000268.webp","arrowleft","","test1_target","img/instructions_scene/restaurant.png","img/sceneWheel_images_webp/Wheel04/wheel04_r32/000268.webp","1","true","","","","","","",""
"","reconstruct-wheel","148","532391","0.0-14.0-2.16","","","","","","","000286","","test1_recon","","","","","7781.699999988079","286","","0.3665191429188095","21","1647.6000000238419",""
"","html-keyboard-response","149","533813","0.0-14.0-3.16","","","","","null","<p style=""font-size: 30px; font-family: SimSun;"">+</p>","null","","test1_iti","","","","","","","","","","","1403"
"","image-keyboard-response","150","534323","0.0-14.0-0.17","","","","","null","img/instructions_scene/restaurant.png","null","","test1_cue","img/instructions_scene/restaurant.png","","","","","","","","","",""
"","image-keyboard-response","151","535023","0.0-14.0-1.17","","","","","699","img/sceneWheel_images_webp/Wheel04/wheel04_r32/000244.webp","arrowright","","test1_target","img/instructions_scene/restaurant.png","img/sceneWheel_images_webp/Wheel04/wheel04_r32/000244.webp","1","false","","","","","","",""
"","reconstruct-wheel","152","556028","0.0-14.0-2.17","","","","","","","000244","","test1_recon","","","","","18881.899999976158","244","","0.08726646259971638","4","2116.100000023842",""
"","html-keyboard-response","153","557149","0.0-14.0-3.17","","","","","null","<p style=""font-size: 30px; font-family: SimSun;"">+</p>","null","","test1_iti","","","","","","","","","","","1091"
"","image-keyboard-response","154","557662","0.0-14.0-0.18","","","","","null","img/instructions_scene/bedroom.png","null","","test1_cue","img/instructions_scene/bedroom.png","","","","","","","","","",""
"","image-keyboard-response","155","558259","0.0-14.0-1.18","","","","","596","img/sceneWheel_images_webp/Wheel04/wheel04_r32/000357.webp","arrowright","","test1_target","img/instructions_scene/bedroom.png","img/sceneWheel_images_webp/Wheel04/wheel04_r32/000357.webp","0","true","","","","","","",""
"","reconstruct-wheel","156","566499","0.0-14.0-2.18","","","","","","","000016","","test1_recon","","","","","8233.399999976158","16","","","NaN","0.10000002384185791",""
"","html-keyboard-response","157","567788","0.0-14.0-3.18","","","","","null","<p style=""font-size: 30px; font-family: SimSun;"">+</p>","null","","test1_iti","","","","","","","","","","","1273"
"","image-keyboard-response","158","568298","0.0-14.0-0.19","","","","","null","img/instructions_scene/restaurant.png","null","","test1_cue","img/instructions_scene/restaurant.png","","","","","","","","","",""
"","image-keyboard-response","159","568968","0.0-14.0-1.19","","","","","669","img/sceneWheel_images_webp/Wheel04/wheel04_r32/000092.webp","arrowright","","test1_target","img/instructions_scene/restaurant.png","img/sceneWheel_images_webp/Wheel04/wheel04_r32/000092.webp","0","true","","","","","","",""
"","reconstruct-wheel","160","579517","0.0-14.0-2.19","","","","","","","000109","","test1_recon","","","","","8904.700000047684","109","","0.2967059728390362","17","1637.0999999642372",""
"","html-keyboard-response","161","581012","0.0-14.0-3.19","","","","","null","<p style=""font-size: 30px; font-family: SimSun;"">+</p>","null","","test1_iti","","","","","","","","","","","1483"
"","image-keyboard-response","162","581525","0.0-14.0-0.20","","","","","null","img/instructions_scene/dinningroom.png","null","","test1_cue","img/instructions_scene/dinningroom.png","","","","","","","","","",""
"","image-keyboard-response","163","581703","0.0-14.0-1.20","","","","","177","img/sceneWheel_images_webp/Wheel04/wheel04_r32/000099.webp","arrowleft","","test1_target","img/instructions_scene/dinningroom.png","img/sceneWheel_images_webp/Wheel04/wheel04_r32/000099.webp","0","false","","","","","","",""
"","reconstruct-wheel","164","586139","0.0-14.0-2.20","","","","","","","000101","","test1_recon","","","","","3201.5","101","","0.7853981633974483","45","1228.2000000476837",""
"","html-keyboard-response","165","587530","0.0-14.0-3.20","","","","","null","<p style=""font-size: 30px; font-family: SimSun;"">+</p>","null","","test1_iti","","","","","","","","","","","1380"
"","image-keyboard-response","166","588042","0.0-14.0-0.21","","","","","null","img/instructions_scene/restaurant.png","null","","test1_cue","img/instructions_scene/restaurant.png","","","","","","","","","",""
"","image-keyboard-response","167","588819","0.0-14.0-1.21","","","","","777","img/sceneWheel_images_webp/Wheel04/wheel04_r32/000212.webp","arrowright","","test1_target","img/instructions_scene/restaurant.png","img/sceneWheel_images_webp/Wheel04/wheel04_r32/000212.webp","1","false","","","","","","",""
"","reconstruct-wheel","168","597143","0.0-14.0-2.21","","","","","","","000170","","test1_recon","","","","","7384.899999976158","170","","0.43633231299858233","24","932.3999999761581",""
"","html-keyboard-response","169","598399","0.0-14.0-3.21","","","","","null","<p style=""font-size: 30px; font-family: SimSun;"">+</p>","null","","test1_iti","","","","","","","","","","","1249"
"","image-keyboard-response","170","598908","0.0-14.0-0.22","","","","","null","img/instructions_scene/bedroom.png","null","","test1_cue","img/instructions_scene/bedroom.png","","","","","","","","","",""
"","image-keyboard-response","171","599503","0.0-14.0-1.22","","","","","594","img/sceneWheel_images_webp/Wheel04/wheel04_r32/000009.webp","arrowright","","test1_target","img/instructions_scene/bedroom.png","img/sceneWheel_images_webp/Wheel04/wheel04_r32/000009.webp","0","true","","","","","","",""
"","reconstruct-wheel","172","611199","0.0-14.0-2.22","","","","","","","000007","","test1_recon","","","","","10665.700000047684","7","","0.2617993877991496","15","1023.5999999642372",""
"","html-keyboard-response","173","612659","0.0-14.0-3.22","","","","","null","<p style=""font-size: 30px; font-family: SimSun;"">+</p>","null","","test1_iti","","","","","","","","","","","1430"
"","image-keyboard-response","174","613171","0.0-14.0-0.23","","","","","null","img/instructions_scene/dinningroom.png","null","","test1_cue","img/instructions_scene/dinningroom.png","","","","","","","","","",""
"","image-keyboard-response","175","613701","0.0-14.0-1.23","","","","","529","img/sceneWheel_images_webp/Wheel04/wheel04_r32/000218.webp","arrowright","","test1_target","img/instructions_scene/dinningroom.png","img/sceneWheel_images_webp/Wheel04/wheel04_r32/000218.webp","0","true","","","","","","",""
"","reconstruct-wheel","176","621806","0.0-14.0-2.23","","","","","","","000173","","test1_recon","","","","","6367.099999964237","173","","0.5410520681182422","31","1730.800000011921",""
"","html-keyboard-response","177","623122","0.0-14.0-3.23","","","","","null","<p style=""font-size: 30px; font-family: SimSun;"">+</p>","null","","test1_iti","","","","","","","","","","","1305"
"","image-keyboard-response","178","623633","0.0-14.0-0.24","","","","","null","img/instructions_scene/bedroom.png","null","","test1_cue","img/instructions_scene/bedroom.png","","","","","","","","","",""
"","image-keyboard-response","179","624830","0.0-14.0-1.24","","","","","1197","img/sceneWheel_images_webp/Wheel04/wheel04_r32/000357.webp","arrowright","","test1_target","img/instructions_scene/bedroom.png","img/sceneWheel_images_webp/Wheel04/wheel04_r32/000357.webp","0","true","","","","","","",""
"","reconstruct-wheel","180","630019","0.0-14.0-2.24","","","","","","","000011","","test1_recon","","","","","4144.400000035763","11","","1.0471975511965974","59","1036",""
"","html-keyboard-response","181","631033","0.0-14.0-3.24","","","","","null","<p style=""font-size: 30px; font-family: SimSun;"">+</p>","null","","test1_iti","","","","","","","","","","","1002"
"","image-keyboard-response","182","631547","0.0-14.0-0.25","","","","","null","img/instructions_scene/bedroom.png","null","","test1_cue","img/instructions_scene/bedroom.png","","","","","","","","","",""
"","image-keyboard-response","183","632422","0.0-14.0-1.25","","","","","875","img/sceneWheel_images_webp/Wheel04/wheel04_r32/000352.webp","arrowright","","test1_target","img/instructions_scene/bedroom.png","img/sceneWheel_images_webp/Wheel04/wheel04_r32/000352.webp","0","true","","","","","","",""
"","reconstruct-wheel","184","635386","0.0-14.0-2.25","","","","","","","000013","","test1_recon","","","","","1921.199999988079","13","","0.959931088596881","54","1035.6000000238419",""
"","html-keyboard-response","185","636558","0.0-14.0-3.25","","","","","null","<p style=""font-size: 30px; font-family: SimSun;"">+</p>","null","","test1_iti","","","","","","","","","","","1151"
"","image-keyboard-response","186","637073","0.0-14.0-0.26","","","","","null","img/instructions_scene/restaurant.png","null","","test1_cue","img/instructions_scene/restaurant.png","","","","","","","","","",""
"","image-keyboard-response","187","638310","0.0-14.0-1.26","","","","","1237","img/sceneWheel_images_webp/Wheel04/wheel04_r32/000218.webp","arrowright","","test1_target","img/instructions_scene/restaurant.png","img/sceneWheel_images_webp/Wheel04/wheel04_r32/000218.webp","1","false","","","","","","",""
"","reconstruct-wheel","188","644315","0.0-14.0-2.26","","","","","","","000149","","test1_recon","","","","","4048.800000011921","149","","0.5235987755982991","30","1948",""
"","html-keyboard-response","189","645722","0.0-14.0-3.26","","","","","null","<p style=""font-size: 30px; font-family: SimSun;"">+</p>","null","","test1_iti","","","","","","","","","","","1392"
"","image-keyboard-response","190","646233","0.0-14.0-0.27","","","","","null","img/instructions_scene/restaurant.png","null","","test1_cue","img/instructions_scene/restaurant.png","","","","","","","","","",""
"","image-keyboard-response","191","647267","0.0-14.0-1.27","","","","","1033","img/sceneWheel_images_webp/Wheel04/wheel04_r32/000008.webp","arrowright","","test1_target","img/instructions_scene/restaurant.png","img/sceneWheel_images_webp/Wheel04/wheel04_r32/000008.webp","0","true","","","","","","",""
"","reconstruct-wheel","192","658939","0.0-14.0-2.27","","","","","","","000016","","test1_recon","","","","","10420.800000011921","16","","0.959931088596881","54","1244",""
"","html-keyboard-response","193","660290","0.0-14.0-3.27","","","","","null","<p style=""font-size: 30px; font-family: SimSun;"">+</p>","null","","test1_iti","","","","","","","","","","","1328"
"","image-keyboard-response","194","660802","0.0-14.0-0.28","","","","","null","img/instructions_scene/dinningroom.png","null","","test1_cue","img/instructions_scene/dinningroom.png","","","","","","","","","",""
"","image-keyboard-response","195","662818","0.0-14.0-1.28","","","","","null","img/sceneWheel_images_webp/Wheel04/wheel04_r32/000023.webp","null","","test1_target","img/instructions_scene/dinningroom.png","img/sceneWheel_images_webp/Wheel04/wheel04_r32/000023.webp","1","false","","","","","","",""
"","reconstruct-wheel","196","664776","0.0-14.0-2.28","","","","","","","000034","","test1_recon","","","","","871.6999999880791","34","","0.959931088596881","54","1076.8999999761581",""
"","html-keyboard-response","197","665935","0.0-14.0-3.28","","","","","null","<p style=""font-size: 30px; font-family: SimSun;"">+</p>","null","","test1_iti","","","","","","","","","","","1143"
"","image-keyboard-response","198","666446","0.0-14.0-0.29","","","","","null","img/instructions_scene/dinningroom.png","null","","test1_cue","img/instructions_scene/dinningroom.png","","","","","","","","","",""
"","image-keyboard-response","199","667843","0.0-14.0-1.29","","","","","1396","img/sceneWheel_images_webp/Wheel04/wheel04_r32/000148.webp","arrowleft","","test1_target","img/instructions_scene/dinningroom.png","img/sceneWheel_images_webp/Wheel04/wheel04_r32/000148.webp","0","false","","","","","","",""
"","reconstruct-wheel","200","683375","0.0-14.0-2.29","","","","","","","000043","","test1_recon","","","","","14376.100000023842","43","","1.1344640137963138","64","1148",""
"","html-keyboard-response","201","684790","0.0-14.0-3.29","","","","","null","<p style=""font-size: 30px; font-family: SimSun;"">+</p>","null","","test1_iti","","","","","","","","","","","1391"
"","image-keyboard-response","202","685301","0.0-14.0-0.30","","","","","null","img/instructions_scene/dinningroom.png","null","","test1_cue","img/instructions_scene/dinningroom.png","","","","","","","","","",""
"","image-keyboard-response","203","685925","0.0-14.0-1.30","","","","","623","img/sceneWheel_images_webp/Wheel04/wheel04_r32/000095.webp","arrowleft","","test1_target","img/instructions_scene/dinningroom.png","img/sceneWheel_images_webp/Wheel04/wheel04_r32/000095.webp","0","false","","","","","","",""
"","reconstruct-wheel","204","699591","0.0-14.0-2.30","","","","","","","000030","","test1_recon","","","","","12537.399999976158","30","","0.43633231299858233","24","1120.2000000476837",""
"","html-keyboard-response","205","701036","0.0-14.0-3.30","","","","","null","<p style=""font-size: 30px; font-family: SimSun;"">+</p>","null","","test1_iti","","","","","","","","","","","1421"
"","image-keyboard-response","206","701547","0.0-14.0-0.31","","","","","null","img/instructions_scene/bedroom.png","null","","test1_cue","img/instructions_scene/bedroom.png","","","","","","","","","",""
"","image-keyboard-response","207","702187","0.0-14.0-1.31","","","","","639","img/sceneWheel_images_webp/Wheel04/wheel04_r32/000025.webp","arrowright","","test1_target","img/instructions_scene/bedroom.png","img/sceneWheel_images_webp/Wheel04/wheel04_r32/000025.webp","0","true","","","","","","",""
"","reconstruct-wheel","208","712820","0.0-14.0-2.31","","","","","","","000018","","test1_recon","","","","","9512.5","18","","1.1344640137963138","64","1112.699999988079",""
"","html-keyboard-response","209","714119","0.0-14.0-3.31","","","","","null","<p style=""font-size: 30px; font-family: SimSun;"">+</p>","null","","test1_iti","","","","","","","","","","","1282"
"","image-keyboard-response","210","714631","0.0-14.0-0.32","","","","","null","img/instructions_scene/bedroom.png","null","","test1_cue","img/instructions_scene/bedroom.png","","","","","","","","","",""
"","image-keyboard-response","211","715211","0.0-14.0-1.32","","","","","579","img/sceneWheel_images_webp/Wheel04/wheel04_r32/000003.webp","arrowright","","test1_target","img/instructions_scene/bedroom.png","img/sceneWheel_images_webp/Wheel04/wheel04_r32/000003.webp","0","true","","","","","","",""
"","reconstruct-wheel","212","718885","0.0-14.0-2.32","","","","","","","000016","","test1_recon","","","","","2691.600000023842","16","","0.6981317007977319","40","975.1999999880791",""
"","html-keyboard-response","213","720077","0.0-14.0-3.32","","","","","null","<p style=""font-size: 30px; font-family: SimSun;"">+</p>","null","","test1_iti","","","","","","","","","","","1180"
"","image-keyboard-response","214","720588","0.0-14.0-0.33","","","","","null","img/instructions_scene/dinningroom.png","null","","test1_cue","img/instructions_scene/dinningroom.png","","","","","","","","","",""
"","image-keyboard-response","215","721147","0.0-14.0-1.33","","","","","558","img/sceneWheel_images_webp/Wheel04/wheel04_r32/000145.webp","arrowright","","test1_target","img/instructions_scene/dinningroom.png","img/sceneWheel_images_webp/Wheel04/wheel04_r32/000145.webp","0","true","","","","","","",""
"","reconstruct-wheel","216","738439","0.0-14.0-2.33","","","","","","","000148","","test1_recon","","","","","16095.699999988079","148","","1.0471975511965974","59","1188.1000000238419",""
"","html-keyboard-response","217","739535","0.0-14.0-3.33","","","","","null","<p style=""font-size: 30px; font-family: SimSun;"">+</p>","null","","test1_iti","","","","","","","","","","","1067"
"","image-keyboard-response","218","740036","0.0-14.0-0.34","","","","","null","img/instructions_scene/bedroom.png","null","","test1_cue","img/instructions_scene/bedroom.png","","","","","","","","","",""
"","image-keyboard-response","219","740914","0.0-14.0-1.34","","","","","877","img/sceneWheel_images_webp/Wheel04/wheel04_r32/000116.webp","arrowleft","","test1_target","img/instructions_scene/bedroom.png","img/sceneWheel_images_webp/Wheel04/wheel04_r32/000116.webp","1","true","","","","","","",""
"","reconstruct-wheel","220","754495","0.0-14.0-2.34","","","","","","","000147","","test1_recon","","","","","11302.699999988079","147","","0.5585053606381858","32","2267.7000000476837",""
"","html-keyboard-response","221","755614","0.0-14.0-3.34","","","","","null","<p style=""font-size: 30px; font-family: SimSun;"">+</p>","null","","test1_iti","","","","","","","","","","","1099"
"","image-keyboard-response","222","756131","0.0-14.0-0.35","","","","","null","img/instructions_scene/restaurant.png","null","","test1_cue","img/instructions_scene/restaurant.png","","","","","","","","","",""
"","image-keyboard-response","223","756758","0.0-14.0-1.35","","","","","626","img/sceneWheel_images_webp/Wheel04/wheel04_r32/000344.webp","arrowright","","test1_target","img/instructions_scene/restaurant.png","img/sceneWheel_images_webp/Wheel04/wheel04_r32/000344.webp","0","true","","","","","","",""
"","reconstruct-wheel","224","762159","0.0-14.0-2.35","","","","","","","000038","","test1_recon","","","","","4147","38","","1.3089969389957468","74","1245",""
"","html-keyboard-response","225","763547","0.0-14.0-3.35","","","","","null","<p style=""font-size: 30px; font-family: SimSun;"">+</p>","null","","test1_iti","","","","","","","","","","","1375"
"","image-keyboard-response","226","764059","0.0-14.0-0.36","","","","","null","img/instructions_scene/bedroom.png","null","","test1_cue","img/instructions_scene/bedroom.png","","","","","","","","","",""
"","image-keyboard-response","227","764165","0.0-14.0-1.36","","","","","105","img/sceneWheel_images_webp/Wheel04/wheel04_r32/000144.webp","arrowleft","","test1_target","img/instructions_scene/bedroom.png","img/sceneWheel_images_webp/Wheel04/wheel04_r32/000144.webp","1","true","","","","","","",""
"","reconstruct-wheel","228","767884","0.0-14.0-2.36","","","","","","","000133","","test1_recon","","","","","2065.100000023842","133","","0.45378560551852587","26","1645.5",""
"","html-keyboard-response","229","768902","0.0-14.0-3.36","","","","","null","<p style=""font-size: 30px; font-family: SimSun;"">+</p>","null","","test1_iti","","","","","","","","","","","1005"
"","image-keyboard-response","230","769412","0.0-14.0-0.37","","","","","null","img/instructions_scene/dinningroom.png","null","","test1_cue","img/instructions_scene/dinningroom.png","","","","","","","","","",""
"","image-keyboard-response","231","770520","0.0-14.0-1.37","","","","","1106","img/sceneWheel_images_webp/Wheel04/wheel04_r32/000334.webp","arrowleft","","test1_target","img/instructions_scene/dinningroom.png","img/sceneWheel_images_webp/Wheel04/wheel04_r32/000334.webp","1","true","","","","","","",""
"","reconstruct-wheel","232","776995","0.0-14.0-2.37","","","","","","","000347","","test1_recon","","","","","5302.699999988079","347","","0.8726646259971647","49","1163.6000000238419",""
"","html-keyboard-response","233","778346","0.0-14.0-3.37","","","","","null","<p style=""font-size: 30px; font-family: SimSun;"">+</p>","null","","test1_iti","","","","","","","","","","","1336"
"","image-keyboard-response","234","778857","0.0-14.0-0.38","","","","","null","img/instructions_scene/bedroom.png","null","","test1_cue","img/instructions_scene/bedroom.png","","","","","","","","","",""
"","image-keyboard-response","235","780199","0.0-14.0-1.38","","","","","1341","img/sceneWheel_images_webp/Wheel04/wheel04_r32/000231.webp","arrowright","","test1_target","img/instructions_scene/bedroom.png","img/sceneWheel_images_webp/Wheel04/wheel04_r32/000231.webp","0","true","","","","","","",""
"","reconstruct-wheel","236","787611","0.0-14.0-2.38","","","","","","","000226","","test1_recon","","","","","6486.700000047684","226","","0.6981317007977319","40","916",""
"","html-keyboard-response","237","788999","0.0-14.0-3.38","","","","","null","<p style=""font-size: 30px; font-family: SimSun;"">+</p>","null","","test1_iti","","","","","","","","","","","1366"
"","image-keyboard-response","238","789512","0.0-14.0-0.39","","","","","null","img/instructions_scene/bedroom.png","null","","test1_cue","img/instructions_scene/bedroom.png","","","","","","","","","",""
"","image-keyboard-response","239","790158","0.0-14.0-1.39","","","","","645","img/sceneWheel_images_webp/Wheel04/wheel04_r32/000267.webp","arrowright","","test1_target","img/instructions_scene/bedroom.png","img/sceneWheel_images_webp/Wheel04/wheel04_r32/000267.webp","0","true","","","","","","",""
"","reconstruct-wheel","240","798922","0.0-14.0-2.39","","","","","","","000283","","test1_recon","","","","","7722.599999964237","283","","0.34906585039886595","20","1032.300000011921",""
"","html-keyboard-response","241","800002","0.0-14.0-3.39","","","","","null","<p style=""font-size: 30px; font-family: SimSun;"">+</p>","null","","test1_iti","","","","","","","","","","","1063"
"","image-keyboard-response","242","800511","0.0-14.0-0.40","","","","","null","img/instructions_scene/restaurant.png","null","","test1_cue","img/instructions_scene/restaurant.png","","","","","","","","","",""
"","image-keyboard-response","243","800998","0.0-14.0-1.40","","","","","485","img/sceneWheel_images_webp/Wheel04/wheel04_r32/000341.webp","arrowright","","test1_target","img/instructions_scene/restaurant.png","img/sceneWheel_images_webp/Wheel04/wheel04_r32/000341.webp","0","true","","","","","","",""
"","reconstruct-wheel","244","809778","0.0-14.0-2.40","","","","","","","000342","","test1_recon","","","","","6926.5","342","","0.5585053606381858","32","1844.300000011921",""
"","html-keyboard-response","245","810838","0.0-14.0-3.40","","","","","null","<p style=""font-size: 30px; font-family: SimSun;"">+</p>","null","","test1_iti","","","","","","","","","","","1037"
"","image-keyboard-response","246","811350","0.0-14.0-0.41","","","","","null","img/instructions_scene/restaurant.png","null","","test1_cue","img/instructions_scene/restaurant.png","","","","","","","","","",""
"","image-keyboard-response","247","812653","0.0-14.0-1.41","","","","","1302","img/sceneWheel_images_webp/Wheel04/wheel04_r32/000117.webp","arrowright","","test1_target","img/instructions_scene/restaurant.png","img/sceneWheel_images_webp/Wheel04/wheel04_r32/000117.webp","0","true","","","","","","",""
"","reconstruct-wheel","248","824837","0.0-14.0-2.41","","","","","","","000128","","test1_recon","","","","","11115.199999988079","128","","0.7853981633974483","45","1058.6000000238419",""
"","html-keyboard-response","249","826047","0.0-14.0-3.41","","","","","null","<p style=""font-size: 30px; font-family: SimSun;"">+</p>","null","","test1_iti","","","","","","","","","","","1182"
"","image-keyboard-response","250","826561","0.0-14.0-0.42","","","","","null","img/instructions_scene/dinningroom.png","null","","test1_cue","img/instructions_scene/dinningroom.png","","","","","","","","","",""
"","image-keyboard-response","251","828564","0.0-14.0-1.42","","","","","null","img/sceneWheel_images_webp/Wheel04/wheel04_r32/000353.webp","null","","test1_target","img/instructions_scene/dinningroom.png","img/sceneWheel_images_webp/Wheel04/wheel04_r32/000353.webp","1","false","","","","","","",""
"","reconstruct-wheel","252","836790","0.0-14.0-2.42","","","","","","","000358","","test1_recon","","","","","6978.800000011921","358","","1.2217304763960304","69","1235.5999999642372",""
"","html-keyboard-response","253","838297","0.0-14.0-3.42","","","","","null","<p style=""font-size: 30px; font-family: SimSun;"">+</p>","null","","test1_iti","","","","","","","","","","","1483"
"","image-keyboard-response","254","838811","0.0-14.0-0.43","","","","","null","img/instructions_scene/restaurant.png","null","","test1_cue","img/instructions_scene/restaurant.png","","","","","","","","","",""
"","image-keyboard-response","255","840827","0.0-14.0-1.43","","","","","null","img/sceneWheel_images_webp/Wheel04/wheel04_r32/000244.webp","null","","test1_target","img/instructions_scene/restaurant.png","img/sceneWheel_images_webp/Wheel04/wheel04_r32/000244.webp","1","false","","","","","","",""
"","reconstruct-wheel","256","843742","0.0-14.0-2.43","","","","","","","000021","","test1_recon","","","","","1662.300000011921","21","","1.3089969389957468","74","1242.3999999761581",""
"","html-keyboard-response","257","845129","0.0-14.0-3.43","","","","","null","<p style=""font-size: 30px; font-family: SimSun;"">+</p>","null","","test1_iti","","","","","","","","","","","1378"
"","image-keyboard-response","258","845644","0.0-14.0-0.44","","","","","null","img/instructions_scene/bedroom.png","null","","test1_cue","img/instructions_scene/bedroom.png","","","","","","","","","",""
"","image-keyboard-response","259","846097","0.0-14.0-1.44","","","","","452","img/sceneWheel_images_webp/Wheel04/wheel04_r32/000134.webp","arrowleft","","test1_target","img/instructions_scene/bedroom.png","img/sceneWheel_images_webp/Wheel04/wheel04_r32/000134.webp","1","true","","","","","","",""
"","reconstruct-wheel","260","856602","0.0-14.0-2.44","","","","","","","000135","","test1_recon","","","","","8867.800000011921","135","","0.5235987755982987","29","1627.2999999523163",""
"","html-keyboard-response","261","857810","0.0-14.0-3.44","","","","","null","<p style=""font-size: 30px; font-family: SimSun;"">+</p>","null","","test1_iti","","","","","","","","","","","1193"
"","image-keyboard-response","262","858319","0.0-14.0-0.45","","","","","null","img/instructions_scene/bedroom.png","null","","test1_cue","img/instructions_scene/bedroom.png","","","","","","","","","",""
"","image-keyboard-response","263","858870","0.0-14.0-1.45","","","","","550","img/sceneWheel_images_webp/Wheel04/wheel04_r32/000234.webp","arrowright","","test1_target","img/instructions_scene/bedroom.png","img/sceneWheel_images_webp/Wheel04/wheel04_r32/000234.webp","0","true","","","","","","",""
"","reconstruct-wheel","264","874826","0.0-14.0-2.45","","","","","","","000211","","test1_recon","","","","","14196.100000023842","211","","0.5410520681182422","31","1749.5999999642372",""
"","html-keyboard-response","265","876285","0.0-14.0-3.45","","","","","null","<p style=""font-size: 30px; font-family: SimSun;"">+</p>","null","","test1_iti","","","","","","","","","","","1442"
"","image-keyboard-response","266","876796","0.0-14.0-0.46","","","","","null","img/instructions_scene/dinningroom.png","null","","test1_cue","img/instructions_scene/dinningroom.png","","","","","","","","","",""
"","image-keyboard-response","267","877906","0.0-14.0-1.46","","","","","1108","img/sceneWheel_images_webp/Wheel04/wheel04_r32/000260.webp","arrowright","","test1_target","img/instructions_scene/dinningroom.png","img/sceneWheel_images_webp/Wheel04/wheel04_r32/000260.webp","0","true","","","","","","",""
"","reconstruct-wheel","268","886550","0.0-14.0-2.46","","","","","","","000288","","test1_recon","","","","","7512.899999976158","288","","0.43633231299858233","24","1120",""
"","html-keyboard-response","269","887782","0.0-14.0-3.46","","","","","null","<p style=""font-size: 30px; font-family: SimSun;"">+</p>","null","","test1_iti","","","","","","","","","","","1218"
"","image-keyboard-response","270","888293","0.0-14.0-0.47","","","","","null","img/instructions_scene/bedroom.png","null","","test1_cue","img/instructions_scene/bedroom.png","","","","","","","","","",""
"","image-keyboard-response","271","888678","0.0-14.0-1.47","","","","","384","img/sceneWheel_images_webp/Wheel04/wheel04_r32/000020.webp","arrowright","","test1_target","img/instructions_scene/bedroom.png","img/sceneWheel_images_webp/Wheel04/wheel04_r32/000020.webp","0","true","","","","","","",""
"","reconstruct-wheel","272","891195","0.0-14.0-2.47","","","","","","","000001","","test1_recon","","","","","1512.199999988079","1","","0.7853981633974483","45","993",""
"","html-keyboard-response","273","892448","0.0-14.0-3.47","","","","","null","<p style=""font-size: 30px; font-family: SimSun;"">+</p>","null","","test1_iti","","","","","","","","","","","1241"
"","image-keyboard-response","274","892958","0.0-14.0-0.48","","","","","null","img/instructions_scene/dinningroom.png","null","","test1_cue","img/instructions_scene/dinningroom.png","","","","","","","","","",""
"","image-keyboard-response","275","894230","0.0-14.0-1.48","","","","","1271","img/sceneWheel_images_webp/Wheel04/wheel04_r32/000234.webp","arrowright","","test1_target","img/instructions_scene/dinningroom.png","img/sceneWheel_images_webp/Wheel04/wheel04_r32/000234.webp","0","true","","","","","","",""
"","reconstruct-wheel","276","901442","0.0-14.0-2.48","","","","","","","000240","","test1_recon","","","","","4766","240","","0.5585053606381858","32","2435.800000011921",""
"","html-keyboard-response","277","902733","0.0-14.0-3.48","","","","","null","<p style=""font-size: 30px; font-family: SimSun;"">+</p>","null","","test1_iti","","","","","","","","","","","1278"
"","image-keyboard-response","278","903247","0.0-14.0-0.49","","","","","null","img/instructions_scene/restaurant.png","null","","test1_cue","img/instructions_scene/restaurant.png","","","","","","","","","",""
"","image-keyboard-response","279","904233","0.0-14.0-1.49","","","","","985","img/sceneWheel_images_webp/Wheel04/wheel04_r32/000101.webp","arrowright","","test1_target","img/instructions_scene/restaurant.png","img/sceneWheel_images_webp/Wheel04/wheel04_r32/000101.webp","0","true","","","","","","",""
"","reconstruct-wheel","280","921054","0.0-14.0-2.49","","","","","","","000099","","test1_recon","","","","","15550.800000011921","99","","0.2967059728390362","17","1259.7999999523163",""
"","html-keyboard-response","281","922125","0.0-14.0-3.49","","","","","null","<p style=""font-size: 30px; font-family: SimSun;"">+</p>","null","","test1_iti","","","","","","","","","","","1041"
"","image-keyboard-response","282","922637","0.0-14.0-0.50","","","","","null","img/instructions_scene/dinningroom.png","null","","test1_cue","img/instructions_scene/dinningroom.png","","","","","","","","","",""
"","image-keyboard-response","283","923146","0.0-14.0-1.50","","","","","508","img/sceneWheel_images_webp/Wheel04/wheel04_r32/000139.webp","arrowright","","test1_target","img/instructions_scene/dinningroom.png","img/sceneWheel_images_webp/Wheel04/wheel04_r32/000139.webp","0","true","","","","","","",""
"","reconstruct-wheel","284","929591","0.0-14.0-2.50","","","","","","","000122","","test1_recon","","","","","5213.799999952316","122","","0.27925268031909267","15","1220",""
"","html-keyboard-response","285","930925","0.0-14.0-3.50","","","","","null","<p style=""font-size: 30px; font-family: SimSun;"">+</p>","null","","test1_iti","","","","","","","","","","","1315"
"","image-keyboard-response","286","931438","0.0-14.0-0.51","","","","","null","img/instructions_scene/restaurant.png","null","","test1_cue","img/instructions_scene/restaurant.png","","","","","","","","","",""
"","image-keyboard-response","287","931830","0.0-14.0-1.51","","","","","391","img/sceneWheel_images_webp/Wheel04/wheel04_r32/000226.webp","arrowright","","test1_target","img/instructions_scene/restaurant.png","img/sceneWheel_images_webp/Wheel04/wheel04_r32/000226.webp","1","false","","","","","","",""
"","reconstruct-wheel","288","938418","0.0-14.0-2.51","","","","","","","000200","","test1_recon","","","","","4702.199999988079","200","","0.6108652381980155","35","1875.8999999761581",""
"","html-keyboard-response","289","939490","0.0-14.0-3.51","","","","","null","<p style=""font-size: 30px; font-family: SimSun;"">+</p>","null","","test1_iti","","","","","","","","","","","1046"
"","image-keyboard-response","290","940002","0.0-14.0-0.52","","","","","null","img/instructions_scene/dinningroom.png","null","","test1_cue","img/instructions_scene/dinningroom.png","","","","","","","","","",""
"","image-keyboard-response","291","941010","0.0-14.0-1.52","","","","","1007","img/sceneWheel_images_webp/Wheel04/wheel04_r32/000106.webp","arrowright","","test1_target","img/instructions_scene/dinningroom.png","img/sceneWheel_images_webp/Wheel04/wheel04_r32/000106.webp","0","true","","","","","","",""
"","reconstruct-wheel","292","951300","0.0-14.0-2.52","","","","","","","000174","","test1_recon","","","","","8897","174","","1.1344640137963138","64","1381.8999999761581",""
"","html-keyboard-response","293","952417","0.0-14.0-3.52","","","","","null","<p style=""font-size: 30px; font-family: SimSun;"">+</p>","null","","test1_iti","","","","","","","","","","","1099"
"","image-keyboard-response","294","952931","0.0-14.0-0.53","","","","","null","img/instructions_scene/bedroom.png","null","","test1_cue","img/instructions_scene/bedroom.png","","","","","","","","","",""
"","image-keyboard-response","295","953438","0.0-14.0-1.53","","","","","505","img/sceneWheel_images_webp/Wheel04/wheel04_r32/000101.webp","arrowleft","","test1_target","img/instructions_scene/bedroom.png","img/sceneWheel_images_webp/Wheel04/wheel04_r32/000101.webp","1","true","","","","","","",""
"","reconstruct-wheel","296","958934","0.0-14.0-2.53","","","","","","","000111","","test1_recon","","","","","4337.300000011921","111","","0.959931088596881","54","1148.5999999642372",""
"","html-keyboard-response","297","960180","0.0-14.0-3.53","","","","","null","<p style=""font-size: 30px; font-family: SimSun;"">+</p>","null","","test1_iti","","","","","","","","","","","1224"
"","image-keyboard-response","298","960690","0.0-14.0-0.54","","","","","null","img/instructions_scene/restaurant.png","null","","test1_cue","img/instructions_scene/restaurant.png","","","","","","","","","",""
"","image-keyboard-response","299","961641","0.0-14.0-1.54","","","","","950","img/sceneWheel_images_webp/Wheel04/wheel04_r32/000105.webp","arrowright","","test1_target","img/instructions_scene/restaurant.png","img/sceneWheel_images_webp/Wheel04/wheel04_r32/000105.webp","0","true","","","","","","",""
"","reconstruct-wheel","300","967650","0.0-14.0-2.54","","","","","","","000106","","test1_recon","","","","","3998","106","","0.6108652381980155","35","1999.9000000357628",""
"","html-keyboard-response","301","969158","0.0-14.0-3.54","","","","","null","<p style=""font-size: 30px; font-family: SimSun;"">+</p>","null","","test1_iti","","","","","","","","","","","1489"
"","image-keyboard-response","302","969669","0.0-14.0-0.55","","","","","null","img/instructions_scene/dinningroom.png","null","","test1_cue","img/instructions_scene/dinningroom.png","","","","","","","","","",""
"","image-keyboard-response","303","970162","0.0-14.0-1.55","","","","","492","img/sceneWheel_images_webp/Wheel04/wheel04_r32/000127.webp","arrowright","","test1_target","img/instructions_scene/dinningroom.png","img/sceneWheel_images_webp/Wheel04/wheel04_r32/000127.webp","0","true","","","","","","",""
"","reconstruct-wheel","304","977851","0.0-14.0-2.55","","","","","","","000127","","test1_recon","","","","","6068.200000047684","127","","0.40142572795869613","23","1609.5999999642372",""
"","html-keyboard-response","305","979145","0.0-14.0-3.55","","","","","null","<p style=""font-size: 30px; font-family: SimSun;"">+</p>","null","","test1_iti","","","","","","","","","","","1278"
"","image-keyboard-response","306","979658","0.0-14.0-0.56","","","","","null","img/instructions_scene/bedroom.png","null","","test1_cue","img/instructions_scene/bedroom.png","","","","","","","","","",""
"","image-keyboard-response","307","981077","0.0-14.0-1.56","","","","","1417","img/sceneWheel_images_webp/Wheel04/wheel04_r32/000024.webp","arrowright","","test1_target","img/instructions_scene/bedroom.png","img/sceneWheel_images_webp/Wheel04/wheel04_r32/000024.webp","0","true","","","","","","",""
"","reconstruct-wheel","308","1009469","0.0-14.0-2.56","","","","","","","000024","","test1_recon","","","","","26935.899999976158","24","","0.40142572795869613","23","1443.6000000238419",""
"","html-keyboard-response","309","1010889","0.0-14.0-3.56","","","","","null","<p style=""font-size: 30px; font-family: SimSun;"">+</p>","null","","test1_iti","","","","","","","","","","","1392"
"","image-keyboard-response","310","1011403","0.0-14.0-0.57","","","","","null","img/instructions_scene/bedroom.png","null","","test1_cue","img/instructions_scene/bedroom.png","","","","","","","","","",""
"","image-keyboard-response","311","1011817","0.0-14.0-1.57","","","","","412","img/sceneWheel_images_webp/Wheel04/wheel04_r32/000111.webp","arrowleft","","test1_target","img/instructions_scene/bedroom.png","img/sceneWheel_images_webp/Wheel04/wheel04_r32/000111.webp","1","true","","","","","","",""
"","reconstruct-wheel","312","1022881","0.0-14.0-2.57","","","","","","","000106","","test1_recon","","","","","9995.699999988079","106","","0.6108652381980155","35","1055.8999999761581",""
"","html-keyboard-response","313","1024036","0.0-14.0-3.57","","","","","null","<p style=""font-size: 30px; font-family: SimSun;"">+</p>","null","","test1_iti","","","","","","","","","","","1139"
"","image-keyboard-response","314","1024547","0.0-14.0-0.58","","","","","null","img/instructions_scene/bedroom.png","null","","test1_cue","img/instructions_scene/bedroom.png","","","","","","","","","",""
"","image-keyboard-response","315","1025077","0.0-14.0-1.58","","","","","528","img/sceneWheel_images_webp/Wheel04/wheel04_r32/000240.webp","arrowright","","test1_target","img/instructions_scene/bedroom.png","img/sceneWheel_images_webp/Wheel04/wheel04_r32/000240.webp","0","true","","","","","","",""
"","reconstruct-wheel","316","1034917","0.0-14.0-2.58","","","","","","","000239","","test1_recon","","","","","8431.5","239","","0.7853981633974483","45","1395.699999988079",""
"","html-keyboard-response","317","1036159","0.0-14.0-3.58","","","","","null","<p style=""font-size: 30px; font-family: SimSun;"">+</p>","null","","test1_iti","","","","","","","","","","","1221"
"","image-keyboard-response","318","1036671","0.0-14.0-0.59","","","","","null","img/instructions_scene/dinningroom.png","null","","test1_cue","img/instructions_scene/dinningroom.png","","","","","","","","","",""
"","image-keyboard-response","319","1037437","0.0-14.0-1.59","","","","","764","img/sceneWheel_images_webp/Wheel04/wheel04_r32/000095.webp","arrowright","","test1_target","img/instructions_scene/dinningroom.png","img/sceneWheel_images_webp/Wheel04/wheel04_r32/000095.webp","0","true","","","","","","",""
"","reconstruct-wheel","320","1047517","0.0-14.0-2.59","","","","","","","000097","","test1_recon","","","","","7640.400000035763","97","","0.8726646259971655","50","2427.7999999523163",""
"","html-keyboard-response","321","1048681","0.0-14.0-3.59","","","","","null","<p style=""font-size: 30px; font-family: SimSun;"">+</p>","null","","test1_iti","","","","","","","","","","","1148"
"","image-keyboard-response","322","1049441","0.0-15.0","","","","","759","img/instructions_scene/test3.png"," ","","","","","","","","","","","","",""
