"success","trial_type","trial_index","time_elapsed","internal_node_id","timeout","failed_images","failed_audio","failed_video","rt","stimulus","response","order","type","cue","target","condition","correct","search_rt","img_angle","color","uncertainty_half_range","uncertainty_half_range_image","uncertainty_rt","trial_duration"
"true","fullscreen","0","3567","0.0-0.0","","","","","","","","","","","","","","","","","","","",""
"true","preload","1","4052","0.0-1.0","false","[]","[]","[]","","","","","","","","","","","","","","","",""
"","image-keyboard-response","2","6178","0.0-2.0","","","","","2123","img/instructions_color/info.png","enter","","","","","","","","","","","","",""
"","survey-html-form","3","8891","0.0-3.0","","","","","2713","","{""subj_idx"":""000""}","1","","","","","","","","","","","",""
"","survey-html-form","4","9862","0.0-4.0","","","","","970","","{""Born"":""1990""}","","","","","","","","","","","","",""
"","survey-html-form","5","14245","0.0-5.0","","","","","4383","","{""sex"":""1""}","","","","","","","","","","","","",""
"","survey-html-form","6","16778","0.0-6.0","","","","","2532","","{""education"":""5""}","","","","","","","","","","","","",""
"","image-keyboard-response","7","31589","0.0-7.0","","","","","14810","img/instructions_color/intro1.png"," ","","","","","","","","","","","","",""
"","image-keyboard-response","8","35368","0.0-8.0","","","","","3777","img/instructions_color/intro2.png"," ","","","","","","","","","","","","",""
"","image-keyboard-response","9","36590","0.0-9.0","","","","","1221","img/instructions_color/intro31.png"," ","","","","","","","","","","","","",""
"","image-keyboard-response","10","37426","0.0-10.0","","","","","836","img/instructions_color/intro4.png"," ","","","","","","","","","","","","",""
"","image-keyboard-response","11","38178","0.0-11.0","","","","","752","img/instructions_color/intro5.png"," ","","","","","","","","","","","","",""
"","image-keyboard-response","12","38904","0.0-12.0","","","","","725","img/instructions_color/intro6.png"," ","","","","","","","","","","","","",""
"","image-keyboard-response","13","39959","0.0-13.0","","","","","1054","img/instructions_color/example1.png"," ","","","","","","","","","","","","",""
"","html-keyboard-response","14","40463","0.0-14.0-0.0","","","","","null","<p style=""font-size: 30px; font-family: SimSun;"">+</p>","null","","","","","","","","","","","","",""
"","image-keyboard-response","15","40970","0.0-14.0-1.0","","","","","null","img/instructions_color/red.png","null","","example_cue","img/instructions_color/red.png","","","","","","","","","",""
"","image-keyboard-response","16","41742","0.0-14.0-2.0","","","","","771","img/color/color_012.png","arrowleft","","example_target","img/instructions_color/red.png","img/color/color_012.png","1","true","","","","","","",""
"","reconstruct-colorwheel","17","55159","0.0-14.0-3.0","","","","","","","000359","","example_recon","","","","","10623.80000000447","359","rgba(252, 2, 0, 1)","0.13962634015954656","8","2789.39999999851",""
"","image-keyboard-response","18","61978","0.0-14.0-4.0","","","","","6816","img/instructions_color/example2.png","arrowright","","example_confirmation","","","","","","","","","","",""
"","image-keyboard-response","19","64059","0.0-15.0","","","","","2078","img/instructions_color/prac1.png","arrowright","","","","","","","","","","","","",""
"","image-keyboard-response","20","64562","0.0-16.0-0.0","","","","","null","img/instructions_color/green.png","null","","prac_cue","img/instructions_color/green.png","","","","","","","","","",""
"","image-keyboard-response","21","65214","0.0-16.0-1.0","","","","","649","img/color/color_223.png","arrowleft","","prac_target","img/instructions_color/green.png","img/color/color_223.png","1","true","","","","","","",""
"","html-keyboard-response","22","68863","0.0-16.0-2.0","","","","","3648","<p style='font-size: 30px; font-family: SimSun;'>您的回答是 <strong>正确</strong></p> <p style='font-size: 30px; font-family: SimSun;'>你当前的反应时间为 <strong>0.65秒</strong></p> <p style='font-size: 30px; font-family: SimSun;'>你当前的正确率为 <strong>100%</strong></p> <p style='font-size: 30px; font-family: SimSun;'>按任意键结束</p>"," ","","prac_feedback","","","","100","","","","","","",""
"","reconstruct-colorwheel","23","77948","0.0-16.0-3.0","","","","","","","000243","","prac_recon","","","","","9076.69999999553","243","rgba(6, 248, 0, 1)","","NaN","0.20000000298023224",""
"","image-keyboard-response","24","80833","0.0-16.0-4.0","","","","","2882","img/color/color_223.png"," ","","","","","","","","","","","","",""
"","html-keyboard-response","25","82322","0.0-16.0-5.0","","","","","null","<p style=""font-size: 30px; font-family: SimSun;"">+</p>","null","","prac_iti","","","","","","","","","","","1474"
"","image-keyboard-response","26","82828","0.0-16.0-0.1","","","","","null","img/instructions_color/blue.png","null","","prac_cue","img/instructions_color/blue.png","","","","","","","","","",""
"","image-keyboard-response","27","83461","0.0-16.0-1.1","","","","","630","img/color/color_128.png","arrowleft","","prac_target","img/instructions_color/blue.png","img/color/color_128.png","1","true","","","","","","",""
"","html-keyboard-response","28","85469","0.0-16.0-2.1","","","","","2007","<p style='font-size: 30px; font-family: SimSun;'>您的回答是 <strong>正确</strong></p> <p style='font-size: 30px; font-family: SimSun;'>你当前的反应时间为 <strong>0.63秒</strong></p> <p style='font-size: 30px; font-family: SimSun;'>你当前的正确率为 <strong>100%</strong></p> <p style='font-size: 30px; font-family: SimSun;'>按任意键结束</p>"," ","","prac_feedback","","","","100","","","","","","",""
"","reconstruct-colorwheel","29","98341","0.0-16.0-3.1","","","","","","","000120","","prac_recon","","","","","10265.39999999851","120","rgba(0, 0, 255, 1)","0.1919862177193763","11","2603",""
"","image-keyboard-response","30","99541","0.0-16.0-4.1","","","","","1195","img/color/color_128.png"," ","","","","","","","","","","","","",""
"","html-keyboard-response","31","100877","0.0-16.0-5.1","","","","","null","<p style=""font-size: 30px; font-family: SimSun;"">+</p>","null","","prac_iti","","","","","","","","","","","1323"
"","image-keyboard-response","32","101385","0.0-16.0-0.2","","","","","null","img/instructions_color/red.png","null","","prac_cue","img/instructions_color/red.png","","","","","","","","","",""
"","image-keyboard-response","33","101905","0.0-16.0-1.2","","","","","518","img/color/color_346.png","arrowleft","","prac_target","img/instructions_color/red.png","img/color/color_346.png","1","true","","","","","","",""
"","html-keyboard-response","34","103870","0.0-16.0-2.2","","","","","1965","<p style='font-size: 30px; font-family: SimSun;'>您的回答是 <strong>正确</strong></p> <p style='font-size: 30px; font-family: SimSun;'>你当前的反应时间为 <strong>0.52秒</strong></p> <p style='font-size: 30px; font-family: SimSun;'>你当前的正确率为 <strong>100%</strong></p> <p style='font-size: 30px; font-family: SimSun;'>按任意键结束</p>"," ","","prac_feedback","","","","100","","","","","","",""
"","reconstruct-colorwheel","35","110904","0.0-16.0-3.2","","","","","","","000007","","prac_recon","","","","","7029.29999999702","7","rgba(240, 0, 14, 1)","","NaN","0.20000000298023224",""
"","image-keyboard-response","36","112694","0.0-16.0-4.2","","","","","1785","img/color/color_346.png"," ","","","","","","","","","","","","",""
"","html-keyboard-response","37","113709","0.0-16.0-5.2","","","","","null","<p style=""font-size: 30px; font-family: SimSun;"">+</p>","null","","prac_iti","","","","","","","","","","","1007"
"","image-keyboard-response","38","114221","0.0-16.0-0.3","","","","","null","img/instructions_color/green.png","null","","prac_cue","img/instructions_color/green.png","","","","","","","","","",""
"","image-keyboard-response","39","114891","0.0-16.0-1.3","","","","","669","img/color/color_257.png","arrowleft","","prac_target","img/instructions_color/green.png","img/color/color_257.png","1","true","","","","","","",""
"","html-keyboard-response","40","116911","0.0-16.0-2.3","","","","","2020","<p style='font-size: 30px; font-family: SimSun;'>您的回答是 <strong>正确</strong></p> <p style='font-size: 30px; font-family: SimSun;'>你当前的反应时间为 <strong>0.67秒</strong></p> <p style='font-size: 30px; font-family: SimSun;'>你当前的正确率为 <strong>100%</strong></p> <p style='font-size: 30px; font-family: SimSun;'>按任意键结束</p>"," ","","prac_feedback","","","","100","","","","","","",""
"","reconstruct-colorwheel","41","128127","0.0-16.0-3.3","","","","","","","000236","","prac_recon","","","","","7575","236","rgba(0, 246, 8, 1)","0.10471975511965992","6","3627.7999999970198",""
"","image-keyboard-response","42","129096","0.0-16.0-4.3","","","","","956","img/color/color_257.png"," ","","","","","","","","","","","","",""
"","html-keyboard-response","43","130465","0.0-16.0-5.3","","","","","null","<p style=""font-size: 30px; font-family: SimSun;"">+</p>","null","","prac_iti","","","","","","","","","","","1361"
"","image-keyboard-response","44","130971","0.0-16.0-0.4","","","","","null","img/instructions_color/blue.png","null","","prac_cue","img/instructions_color/blue.png","","","","","","","","","",""
"","image-keyboard-response","45","131684","0.0-16.0-1.4","","","","","710","img/color/color_333.png","arrowright","","prac_target","img/instructions_color/blue.png","img/color/color_333.png","0","true","","","","","","",""
"","html-keyboard-response","46","134828","0.0-16.0-2.4","","","","","3142","<p style='font-size: 30px; font-family: SimSun;'>您的回答是 <strong>正确</strong></p> <p style='font-size: 30px; font-family: SimSun;'>你当前的反应时间为 <strong>0.71秒</strong></p> <p style='font-size: 30px; font-family: SimSun;'>你当前的正确率为 <strong>100%</strong></p> <p style='font-size: 30px; font-family: SimSun;'>按任意键结束</p>"," ","","prac_feedback","","","","100","","","","","","",""
"","reconstruct-colorwheel","47","149248","0.0-16.0-3.4","","","","","","","000333","","prac_recon","","","","","12280.89999999851","333","rgba(197, 57, 0, 1)","0.17453292519943275","9","2131.8000000044703",""
"","image-keyboard-response","48","151505","0.0-16.0-4.4","","","","","2251","img/color/color_333.png"," ","","","","","","","","","","","","",""
"","html-keyboard-response","49","152913","0.0-16.0-5.4","","","","","null","<p style=""font-size: 30px; font-family: SimSun;"">+</p>","null","","prac_iti","","","","","","","","","","","1402"
"","image-keyboard-response","50","153422","0.0-16.0-0.5","","","","","null","img/instructions_color/blue.png","null","","prac_cue","img/instructions_color/blue.png","","","","","","","","","",""
"","image-keyboard-response","51","154019","0.0-16.0-1.5","","","","","596","img/color/color_128.png","arrowleft","","prac_target","img/instructions_color/blue.png","img/color/color_128.png","1","true","","","","","","",""
"","html-keyboard-response","52","155890","0.0-16.0-2.5","","","","","1871","<p style='font-size: 30px; font-family: SimSun;'>您的回答是 <strong>正确</strong></p> <p style='font-size: 30px; font-family: SimSun;'>你当前的反应时间为 <strong>0.60秒</strong></p> <p style='font-size: 30px; font-family: SimSun;'>你当前的正确率为 <strong>100%</strong></p> <p style='font-size: 30px; font-family: SimSun;'>按任意键结束</p>"," ","","prac_feedback","","","","100","","","","","","",""
"","reconstruct-colorwheel","53","160831","0.0-16.0-3.5","","","","","","","000118","","prac_recon","","","","","3158.60000000149","118","rgba(4, 0, 250, 1)","0.15707963267948966","9","1773.3999999985099",""
"","image-keyboard-response","54","163049","0.0-16.0-4.5","","","","","2213","img/color/color_128.png"," ","","","","","","","","","","","","",""
"","html-keyboard-response","55","164146","0.0-16.0-5.5","","","","","null","<p style=""font-size: 30px; font-family: SimSun;"">+</p>","null","","prac_iti","","","","","","","","","","","1089"
"","image-keyboard-response","56","164659","0.0-16.0-0.6","","","","","null","img/instructions_color/red.png","null","","prac_cue","img/instructions_color/red.png","","","","","","","","","",""
"","image-keyboard-response","57","165144","0.0-16.0-1.6","","","","","483","img/color/color_269.png","arrowright","","prac_target","img/instructions_color/red.png","img/color/color_269.png","0","true","","","","","","",""
"","html-keyboard-response","58","167453","0.0-16.0-2.6","","","","","2308","<p style='font-size: 30px; font-family: SimSun;'>您的回答是 <strong>正确</strong></p> <p style='font-size: 30px; font-family: SimSun;'>你当前的反应时间为 <strong>0.48秒</strong></p> <p style='font-size: 30px; font-family: SimSun;'>你当前的正确率为 <strong>100%</strong></p> <p style='font-size: 30px; font-family: SimSun;'>按任意键结束</p>"," ","","prac_feedback","","","","100","","","","","","",""
"","reconstruct-colorwheel","59","173971","0.0-16.0-3.6","","","","","","","000231","","prac_recon","","","","","3733.7999999970198","231","rgba(0, 235, 19, 1)","0.1919862177193763","11","2781.39999999851",""
"","image-keyboard-response","60","175442","0.0-16.0-4.6","","","","","1465","img/color/color_269.png"," ","","","","","","","","","","","","",""
"","html-keyboard-response","61","176917","0.0-16.0-5.6","","","","","null","<p style=""font-size: 30px; font-family: SimSun;"">+</p>","null","","prac_iti","","","","","","","","","","","1461"
"","image-keyboard-response","62","177434","0.0-16.0-0.7","","","","","null","img/instructions_color/red.png","null","","prac_cue","img/instructions_color/red.png","","","","","","","","","",""
"","image-keyboard-response","63","177970","0.0-16.0-1.7","","","","","534","img/color/color_126.png","arrowright","","prac_target","img/instructions_color/red.png","img/color/color_126.png","0","true","","","","","","",""
"","html-keyboard-response","64","179578","0.0-16.0-2.7","","","","","1608","<p style='font-size: 30px; font-family: SimSun;'>您的回答是 <strong>正确</strong></p> <p style='font-size: 30px; font-family: SimSun;'>你当前的反应时间为 <strong>0.53秒</strong></p> <p style='font-size: 30px; font-family: SimSun;'>你当前的正确率为 <strong>100%</strong></p> <p style='font-size: 30px; font-family: SimSun;'>按任意键结束</p>"," ","","prac_feedback","","","","100","","","","","","",""
"","reconstruct-colorwheel","65","192312","0.0-16.0-3.7","","","","","","","000113","","prac_recon","","","","","10200","113","rgba(14, 0, 240, 1)","0.2094395102393194","11","2526.5",""
"","image-keyboard-response","66","195112","0.0-16.0-4.7","","","","","2793","img/color/color_126.png"," ","","","","","","","","","","","","",""
"","html-keyboard-response","67","196318","0.0-16.0-5.7","","","","","null","<p style=""font-size: 30px; font-family: SimSun;"">+</p>","null","","prac_iti","","","","","","","","","","","1195"
"","image-keyboard-response","68","196831","0.0-16.0-0.8","","","","","null","img/instructions_color/green.png","null","","prac_cue","img/instructions_color/green.png","","","","","","","","","",""
"","image-keyboard-response","69","197462","0.0-16.0-1.8","","","","","629","img/color/color_006.png","arrowright","","prac_target","img/instructions_color/green.png","img/color/color_006.png","0","true","","","","","","",""
"","html-keyboard-response","70","198633","0.0-16.0-2.8","","","","","1169","<p style='font-size: 30px; font-family: SimSun;'>您的回答是 <strong>正确</strong></p> <p style='font-size: 30px; font-family: SimSun;'>你当前的反应时间为 <strong>0.63秒</strong></p> <p style='font-size: 30px; font-family: SimSun;'>你当前的正确率为 <strong>100%</strong></p> <p style='font-size: 30px; font-family: SimSun;'>按任意键结束</p>"," ","","prac_feedback","","","","100","","","","","","",""
"","reconstruct-colorwheel","71","208592","0.0-16.0-3.8","","","","","","","000006","","prac_recon","","","","","7541.4000000059605","6","rgba(242, 0, 12, 1)","0.22689280275926293","13","2413.2999999970198",""
"","image-keyboard-response","72","211524","0.0-16.0-4.8","","","","","2927","img/color/color_006.png"," ","","","","","","","","","","","","",""
"","html-keyboard-response","73","212853","0.0-16.0-5.8","","","","","null","<p style=""font-size: 30px; font-family: SimSun;"">+</p>","null","","prac_iti","","","","","","","","","","","1327"
"","image-keyboard-response","74","213365","0.0-16.0-0.9","","","","","null","img/instructions_color/blue.png","null","","prac_cue","img/instructions_color/blue.png","","","","","","","","","",""
"","image-keyboard-response","75","213986","0.0-16.0-1.9","","","","","620","img/color/color_220.png","arrowright","","prac_target","img/instructions_color/blue.png","img/color/color_220.png","0","true","","","","","","",""
"","html-keyboard-response","76","217455","0.0-16.0-2.9","","","","","3468","<p style='font-size: 30px; font-family: SimSun;'>您的回答是 <strong>正确</strong></p> <p style='font-size: 30px; font-family: SimSun;'>你当前的反应时间为 <strong>0.62秒</strong></p> <p style='font-size: 30px; font-family: SimSun;'>你当前的正确率为 <strong>100%</strong></p> <p style='font-size: 30px; font-family: SimSun;'>按任意键结束</p>"," ","","prac_feedback","","","","100","","","","","","",""
"","reconstruct-colorwheel","77","225996","0.0-16.0-3.9","","","","","","","000239","","prac_recon","","","","","6596","239","rgba(0, 252, 2, 1)","0.12217304763960302","6","1938.6999999955297",""
"","image-keyboard-response","78","227582","0.0-16.0-4.9","","","","","1584","img/color/color_220.png"," ","","","","","","","","","","","","",""
"","html-keyboard-response","79","228629","0.0-16.0-5.9","","","","","null","<p style=""font-size: 30px; font-family: SimSun;"">+</p>","null","","prac_iti","","","","","","","","","","","1037"
"","image-keyboard-response","80","229138","0.0-16.0-0.10","","","","","null","img/instructions_color/green.png","null","","prac_cue","img/instructions_color/green.png","","","","","","","","","",""
"","image-keyboard-response","81","229805","0.0-16.0-1.10","","","","","665","img/color/color_121.png","arrowright","","prac_target","img/instructions_color/green.png","img/color/color_121.png","0","true","","","","","","",""
"","html-keyboard-response","82","232904","0.0-16.0-2.10","","","","","3097","<p style='font-size: 30px; font-family: SimSun;'>您的回答是 <strong>正确</strong></p> <p style='font-size: 30px; font-family: SimSun;'>你当前的反应时间为 <strong>0.67秒</strong></p> <p style='font-size: 30px; font-family: SimSun;'>你当前的正确率为 <strong>100%</strong></p> <p style='font-size: 30px; font-family: SimSun;'>按任意键结束</p>"," ","","prac_feedback","","","","100","","","","","","",""
"","reconstruct-colorwheel","83","245446","0.0-16.0-3.10","","","","","","","000118","","prac_recon","","","","","8795.39999999851","118","rgba(4, 0, 250, 1)","0.12217304763960302","6","3739.2999999970198",""
"","image-keyboard-response","84","246158","0.0-16.0-4.10","","","","","707","img/color/color_121.png"," ","","","","","","","","","","","","",""
"","html-keyboard-response","85","247386","0.0-16.0-5.10","","","","","null","<p style=""font-size: 30px; font-family: SimSun;"">+</p>","null","","prac_iti","","","","","","","","","","","1214"
"","image-keyboard-response","86","247896","0.0-16.0-0.11","","","","","null","img/instructions_color/red.png","null","","prac_cue","img/instructions_color/red.png","","","","","","","","","",""
"","image-keyboard-response","87","248362","0.0-16.0-1.11","","","","","464","img/color/color_344.png","arrowleft","","prac_target","img/instructions_color/red.png","img/color/color_344.png","1","true","","","","","","",""
"","html-keyboard-response","88","252291","0.0-16.0-2.11","","","","","3928","<p style='font-size: 30px; font-family: SimSun;'>您的回答是 <strong>正确</strong></p> <p style='font-size: 30px; font-family: SimSun;'>你当前的反应时间为 <strong>0.46秒</strong></p> <p style='font-size: 30px; font-family: SimSun;'>你当前的正确率为 <strong>100%</strong></p> <p style='font-size: 30px; font-family: SimSun;'>按任意键结束</p>"," ","","prac_feedback","","","","100","","","","","","",""
"","reconstruct-colorwheel","89","260544","0.0-16.0-3.11","","","","","","","000344","","prac_recon","","","","","5557.10000000149","344","rgba(221, 33, 0, 1)","0.12217304763960302","6","2690.2000000029802",""
"","image-keyboard-response","90","261400","0.0-16.0-4.11","","","","","854","img/color/color_344.png"," ","","","","","","","","","","","","",""
"","html-keyboard-response","91","262643","0.0-16.0-5.11","","","","","null","<p style=""font-size: 30px; font-family: SimSun;"">+</p>","null","","prac_iti","","","","","","","","","","","1239"
"","image-keyboard-response","92","268358","0.0-17.0","","","","","5712","img/instructions_color/prac2.png"," ","","","","","","","","","","","","",""
"","image-keyboard-response","93","277912","0.0-18.0","","","","","9553","img/instructions_color/test1.png"," ","","","","","","","","","","","","",""
"","image-keyboard-response","94","278414","0.0-19.0-0.0","","","","","null","img/instructions_color/red.png","null","","test1_cue","img/instructions_color/red.png","","","","","","","","","",""
"","image-keyboard-response","95","279099","0.0-19.0-1.0","","","","","683","img/color/color_127.png","arrowright","","test1_target","img/instructions_color/red.png","img/color/color_127.png","0","true","","","","","","",""
"","reconstruct-colorwheel","96","289195","0.0-19.0-2.0","","","","","","","000123","","test1_recon","","","","","8356.09999999404","123","rgba(0, 6, 248, 1)","0.13962634015954656","8","1732.5",""
"","html-keyboard-response","97","290213","0.0-19.0-3.0","","","","","null","<p style=""font-size: 30px; font-family: SimSun;"">+</p>","null","","test1_iti","","","","","","","","","","","1002"
"","image-keyboard-response","98","290724","0.0-19.0-0.1","","","","","null","img/instructions_color/red.png","null","","test1_cue","img/instructions_color/red.png","","","","","","","","","",""
"","image-keyboard-response","99","291111","0.0-19.0-1.1","","","","","386","img/color/color_347.png","arrowleft","","test1_target","img/instructions_color/red.png","img/color/color_347.png","1","true","","","","","","",""
"","reconstruct-colorwheel","100","304205","0.0-19.0-2.1","","","","","","","000358","","test1_recon","","","","","10448.59999999404","358","rgba(250, 4, 0, 1)","0.17453292519943275","9","2638",""
"","html-keyboard-response","101","305602","0.0-19.0-3.1","","","","","null","<p style=""font-size: 30px; font-family: SimSun;"">+</p>","null","","test1_iti","","","","","","","","","","","1386"
"","image-keyboard-response","102","306111","0.0-19.0-0.2","","","","","null","img/instructions_color/red.png","null","","test1_cue","img/instructions_color/red.png","","","","","","","","","",""
"","image-keyboard-response","103","306683","0.0-19.0-1.2","","","","","569","img/color/color_265.png","arrowright","","test1_target","img/instructions_color/red.png","img/color/color_265.png","0","true","","","","","","",""
"","reconstruct-colorwheel","104","315616","0.0-19.0-2.2","","","","","","","000229","","test1_recon","","","","","5786.20000000298","229","rgba(0, 231, 23, 1)","0.17453292519943275","9","3138.7999999970198",""
"","html-keyboard-response","105","316758","0.0-19.0-3.2","","","","","null","<p style=""font-size: 30px; font-family: SimSun;"">+</p>","null","","test1_iti","","","","","","","","","","","1128"
"","image-keyboard-response","106","317269","0.0-19.0-0.3","","","","","null","img/instructions_color/blue.png","null","","test1_cue","img/instructions_color/blue.png","","","","","","","","","",""
"","image-keyboard-response","107","317799","0.0-19.0-1.3","","","","","528","img/color/color_140.png","arrowleft","","test1_target","img/instructions_color/blue.png","img/color/color_140.png","1","true","","","","","","",""
"","reconstruct-colorwheel","108","329903","0.0-19.0-2.3","","","","","","","000116","","test1_recon","","","","","9410.59999999404","116","rgba(8, 0, 246, 1)","0.13962634015954656","8","2685.10000000149",""
"","html-keyboard-response","109","331212","0.0-19.0-3.3","","","","","null","<p style=""font-size: 30px; font-family: SimSun;"">+</p>","null","","test1_iti","","","","","","","","","","","1289"
"","image-keyboard-response","110","331722","0.0-19.0-0.4","","","","","null","img/instructions_color/red.png","null","","test1_cue","img/instructions_color/red.png","","","","","","","","","",""
"","image-keyboard-response","111","332327","0.0-19.0-1.4","","","","","603","img/color/color_125.png","arrowright","","test1_target","img/instructions_color/red.png","img/color/color_125.png","0","true","","","","","","",""
"","reconstruct-colorwheel","112","343768","0.0-19.0-2.4","","","","","","","000118","","test1_recon","","","","","9023.60000000149","118","rgba(4, 0, 250, 1)","0.2094395102393194","11","2408",""
"","html-keyboard-response","113","344789","0.0-19.0-3.4","","","","","null","<p style=""font-size: 30px; font-family: SimSun;"">+</p>","null","","test1_iti","","","","","","","","","","","1002"
"","image-keyboard-response","114","345304","0.0-19.0-0.5","","","","","null","img/instructions_color/blue.png","null","","test1_cue","img/instructions_color/blue.png","","","","","","","","","",""
"","image-keyboard-response","115","345965","0.0-19.0-1.5","","","","","658","img/color/color_350.png","arrowright","","test1_target","img/instructions_color/blue.png","img/color/color_350.png","0","true","","","","","","",""
"","reconstruct-colorwheel","116","358282","0.0-19.0-2.5","","","","","","","000003","","test1_recon","","","","","10181.10000000149","3","rgba(248, 0, 6, 1)","0.05235987755982974","2","2126.0999999940395",""
"","html-keyboard-response","117","359666","0.0-19.0-3.5","","","","","null","<p style=""font-size: 30px; font-family: SimSun;"">+</p>","null","","test1_iti","","","","","","","","","","","1370"
"","image-keyboard-response","118","360178","0.0-19.0-0.6","","","","","null","img/instructions_color/green.png","null","","test1_cue","img/instructions_color/green.png","","","","","","","","","",""
"","image-keyboard-response","119","360807","0.0-19.0-1.6","","","","","628","img/color/color_240.png","arrowleft","","test1_target","img/instructions_color/green.png","img/color/color_240.png","1","true","","","","","","",""
"","reconstruct-colorwheel","120","369502","0.0-19.0-2.6","","","","","","","000236","","test1_recon","","","","","6060.70000000298","236","rgba(0, 246, 8, 1)","0.12217304763960302","6","2616.7999999970198",""
"","html-keyboard-response","121","370763","0.0-19.0-3.6","","","","","null","<p style=""font-size: 30px; font-family: SimSun;"">+</p>","null","","test1_iti","","","","","","","","","","","1249"
"","image-keyboard-response","122","371274","0.0-19.0-0.7","","","","","null","img/instructions_color/green.png","null","","test1_cue","img/instructions_color/green.png","","","","","","","","","",""
"","image-keyboard-response","123","371755","0.0-19.0-1.7","","","","","479","img/color/color_210.png","arrowleft","","test1_target","img/instructions_color/green.png","img/color/color_210.png","1","true","","","","","","",""
"","reconstruct-colorwheel","124","381883","0.0-19.0-2.7","","","","","","","000211","","test1_recon","","","","","6969.10000000149","211","rgba(0, 193, 61, 1)","0.12217304763960302","6","3148.10000000149",""
"","html-keyboard-response","125","383334","0.0-19.0-3.7","","","","","null","<p style=""font-size: 30px; font-family: SimSun;"">+</p>","null","","test1_iti","","","","","","","","","","","1440"
"","image-keyboard-response","126","383846","0.0-19.0-0.8","","","","","null","img/instructions_color/red.png","null","","test1_cue","img/instructions_color/red.png","","","","","","","","","",""
"","image-keyboard-response","127","384458","0.0-19.0-1.8","","","","","611","img/color/color_137.png","arrowright","","test1_target","img/instructions_color/red.png","img/color/color_137.png","0","true","","","","","","",""
"","reconstruct-colorwheel","128","393554","0.0-19.0-2.8","","","","","","","000119","","test1_recon","","","","","6787.89999999851","119","rgba(2, 0, 252, 1)","0.10471975511965992","6","2300.5",""
"","html-keyboard-response","129","394717","0.0-19.0-3.8","","","","","null","<p style=""font-size: 30px; font-family: SimSun;"">+</p>","null","","test1_iti","","","","","","","","","","","1154"
"","image-keyboard-response","130","395227","0.0-19.0-0.9","","","","","null","img/instructions_color/green.png","null","","test1_cue","img/instructions_color/green.png","","","","","","","","","",""
"","image-keyboard-response","131","395906","0.0-19.0-1.9","","","","","676","img/color/color_098.png","arrowright","","test1_target","img/instructions_color/green.png","img/color/color_098.png","0","true","","","","","","",""
"","reconstruct-colorwheel","132","405801","0.0-19.0-2.9","","","","","","","000126","","test1_recon","","","","","7147.19999999553","126","rgba(0, 12, 242, 1)","0.12217304763960302","6","2735.60000000149",""
"","html-keyboard-response","133","407230","0.0-19.0-3.9","","","","","null","<p style=""font-size: 30px; font-family: SimSun;"">+</p>","null","","test1_iti","","","","","","","","","","","1417"
"","image-keyboard-response","134","407743","0.0-19.0-0.10","","","","","null","img/instructions_color/blue.png","null","","test1_cue","img/instructions_color/blue.png","","","","","","","","","",""
"","image-keyboard-response","135","408253","0.0-19.0-1.10","","","","","507","img/color/color_139.png","arrowleft","","test1_target","img/instructions_color/blue.png","img/color/color_139.png","1","true","","","","","","",""
"","reconstruct-colorwheel","136","420770","0.0-19.0-2.10","","","","","","","000130","","test1_recon","","","","","9423.89999999851","130","rgba(0, 21, 233, 1)","0.1919862177193763","11","3083.2000000029802",""
"","html-keyboard-response","137","422082","0.0-19.0-3.10","","","","","null","<p style=""font-size: 30px; font-family: SimSun;"">+</p>","null","","test1_iti","","","","","","","","","","","1298"
"","image-keyboard-response","138","422585","0.0-19.0-0.11","","","","","null","img/instructions_color/blue.png","null","","test1_cue","img/instructions_color/blue.png","","","","","","","","","",""
"","image-keyboard-response","139","423272","0.0-19.0-1.11","","","","","685","img/color/color_134.png","arrowleft","","test1_target","img/instructions_color/blue.png","img/color/color_134.png","1","true","","","","","","",""
"","reconstruct-colorwheel","140","432300","0.0-19.0-2.11","","","","","","","000117","","test1_recon","","","","","6393","117","rgba(6, 0, 248, 1)","0.08726646259971638","4","2629.2999999970198",""
"","html-keyboard-response","141","433548","0.0-19.0-3.11","","","","","null","<p style=""font-size: 30px; font-family: SimSun;"">+</p>","null","","test1_iti","","","","","","","","","","","1234"
"","image-keyboard-response","142","434061","0.0-19.0-0.12","","","","","null","img/instructions_color/green.png","null","","test1_cue","img/instructions_color/green.png","","","","","","","","","",""
"","image-keyboard-response","143","434670","0.0-19.0-1.12","","","","","607","img/color/color_219.png","arrowleft","","test1_target","img/instructions_color/green.png","img/color/color_219.png","1","true","","","","","","",""
"","reconstruct-colorwheel","144","442294","0.0-19.0-2.12","","","","","","","000240","","test1_recon","","","","","5294.79999999702","240","rgba(0, 255, 0, 1)","0.17453292519943275","9","2318.7999999970198",""
"","html-keyboard-response","145","443450","0.0-19.0-3.12","","","","","null","<p style=""font-size: 30px; font-family: SimSun;"">+</p>","null","","test1_iti","","","","","","","","","","","1136"
"","image-keyboard-response","146","443955","0.0-19.0-0.13","","","","","null","img/instructions_color/red.png","null","","test1_cue","img/instructions_color/red.png","","","","","","","","","",""
"","image-keyboard-response","147","444341","0.0-19.0-1.13","","","","","383","img/color/color_015.png","arrowleft","","test1_target","img/instructions_color/red.png","img/color/color_015.png","1","true","","","","","","",""
"","reconstruct-colorwheel","148","451614","0.0-19.0-2.13","","","","","","","000356","","test1_recon","","","","","5246.79999999702","356","rgba(246, 8, 0, 1)","0.13962634015954656","8","2020.9000000059605",""
"","html-keyboard-response","149","452747","0.0-19.0-3.13","","","","","null","<p style=""font-size: 30px; font-family: SimSun;"">+</p>","null","","test1_iti","","","","","","","","","","","1120"
"","image-keyboard-response","150","453253","0.0-19.0-0.14","","","","","null","img/instructions_color/red.png","null","","test1_cue","img/instructions_color/red.png","","","","","","","","","",""
"","image-keyboard-response","151","453744","0.0-19.0-1.14","","","","","489","img/color/color_235.png","arrowright","","test1_target","img/instructions_color/red.png","img/color/color_235.png","0","true","","","","","","",""
"","reconstruct-colorwheel","152","462496","0.0-19.0-2.14","","","","","","","000239","","test1_recon","","","","","6824.39999999851","239","rgba(0, 252, 2, 1)","0.13962634015954656","8","1917.5",""
"","html-keyboard-response","153","463847","0.0-19.0-3.14","","","","","null","<p style=""font-size: 30px; font-family: SimSun;"">+</p>","null","","test1_iti","","","","","","","","","","","1340"
"","image-keyboard-response","154","464355","0.0-19.0-0.15","","","","","null","img/instructions_color/blue.png","null","","test1_cue","img/instructions_color/blue.png","","","","","","","","","",""
"","image-keyboard-response","155","465018","0.0-19.0-1.15","","","","","661","img/color/color_223.png","arrowright","","test1_target","img/instructions_color/blue.png","img/color/color_223.png","0","true","","","","","","",""
"","reconstruct-colorwheel","156","473613","0.0-19.0-2.15","","","","","","","000243","","test1_recon","","","","","4910.10000000149","243","rgba(6, 248, 0, 1)","0.15707963267948966","9","3677.2000000029802",""
"","html-keyboard-response","157","474639","0.0-19.0-3.15","","","","","null","<p style=""font-size: 30px; font-family: SimSun;"">+</p>","null","","test1_iti","","","","","","","","","","","1015"
"","image-keyboard-response","158","475145","0.0-19.0-0.16","","","","","null","img/instructions_color/green.png","null","","test1_cue","img/instructions_color/green.png","","","","","","","","","",""
"","image-keyboard-response","159","475839","0.0-19.0-1.16","","","","","692","img/color/color_104.png","arrowright","","test1_target","img/instructions_color/green.png","img/color/color_104.png","0","true","","","","","","",""
"","reconstruct-colorwheel","160","479610","0.0-19.0-2.16","","","","","","","000119","","test1_recon","","","","","1454.9000000059605","119","rgba(2, 0, 252, 1)","0.13962634015954656","8","2305.7999999970198",""
"","html-keyboard-response","161","480827","0.0-19.0-3.16","","","","","null","<p style=""font-size: 30px; font-family: SimSun;"">+</p>","null","","test1_iti","","","","","","","","","","","1187"
"","image-keyboard-response","162","481339","0.0-19.0-0.17","","","","","null","img/instructions_color/blue.png","null","","test1_cue","img/instructions_color/blue.png","","","","","","","","","",""
"","image-keyboard-response","163","482065","0.0-19.0-1.17","","","","","724","img/color/color_357.png","arrowright","","test1_target","img/instructions_color/blue.png","img/color/color_357.png","0","true","","","","","","",""
"","reconstruct-colorwheel","164","493821","0.0-19.0-2.17","","","","","","","000357","","test1_recon","","","","","9355","357","rgba(248, 6, 0, 1)","0.2617993877991496","15","2389.10000000149",""
"","html-keyboard-response","165","495031","0.0-19.0-3.17","","","","","null","<p style=""font-size: 30px; font-family: SimSun;"">+</p>","null","","test1_iti","","","","","","","","","","","1190"
"","image-keyboard-response","166","495542","0.0-19.0-0.18","","","","","null","img/instructions_color/red.png","null","","test1_cue","img/instructions_color/red.png","","","","","","","","","",""
"","image-keyboard-response","167","495912","0.0-19.0-1.18","","","","","367","img/color/color_350.png","arrowleft","","test1_target","img/instructions_color/red.png","img/color/color_350.png","1","true","","","","","","",""
"","reconstruct-colorwheel","168","508296","0.0-19.0-2.18","","","","","","","000355","","test1_recon","","","","","9874.89999999851","355","rgba(244, 10, 0, 1)","0.1919862177193763","11","2503.3000000044703",""
"","html-keyboard-response","169","509377","0.0-19.0-3.18","","","","","null","<p style=""font-size: 30px; font-family: SimSun;"">+</p>","null","","test1_iti","","","","","","","","","","","1075"
"","image-keyboard-response","170","509886","0.0-19.0-0.19","","","","","null","img/instructions_color/blue.png","null","","test1_cue","img/instructions_color/blue.png","","","","","","","","","",""
"","image-keyboard-response","171","510338","0.0-19.0-1.19","","","","","451","img/color/color_352.png","arrowright","","test1_target","img/instructions_color/blue.png","img/color/color_352.png","0","true","","","","","","",""
"","reconstruct-colorwheel","172","517878","0.0-19.0-2.19","","","","","","","000355","","test1_recon","","","","","4540","355","rgba(244, 10, 0, 1)","0.15707963267948966","9","2990.9000000059605",""
"","html-keyboard-response","173","519000","0.0-19.0-3.19","","","","","null","<p style=""font-size: 30px; font-family: SimSun;"">+</p>","null","","test1_iti","","","","","","","","","","","1101"
"","image-keyboard-response","174","519512","0.0-19.0-0.20","","","","","null","img/instructions_color/red.png","null","","test1_cue","img/instructions_color/red.png","","","","","","","","","",""
"","image-keyboard-response","175","519929","0.0-19.0-1.20","","","","","415","img/color/color_345.png","arrowleft","","test1_target","img/instructions_color/red.png","img/color/color_345.png","1","true","","","","","","",""
"","reconstruct-colorwheel","176","531355","0.0-19.0-2.20","","","","","","","000022","","test1_recon","","","","","8071.20000000298","22","rgba(208, 0, 46, 1)","0.12217304763960302","6","3349.10000000149",""
"","html-keyboard-response","177","532419","0.0-19.0-3.20","","","","","null","<p style=""font-size: 30px; font-family: SimSun;"">+</p>","null","","test1_iti","","","","","","","","","","","1041"
"","image-keyboard-response","178","532925","0.0-19.0-0.21","","","","","null","img/instructions_color/green.png","null","","test1_cue","img/instructions_color/green.png","","","","","","","","","",""
"","image-keyboard-response","179","533440","0.0-19.0-1.21","","","","","513","img/color/color_238.png","arrowleft","","test1_target","img/instructions_color/green.png","img/color/color_238.png","1","true","","","","","","",""
"","reconstruct-colorwheel","180","541689","0.0-19.0-2.21","","","","","","","000233","","test1_recon","","","","","6031.20000000298","233","rgba(0, 240, 14, 1)","0.10471975511965992","6","2202.1999999955297",""
"","html-keyboard-response","181","542847","0.0-19.0-3.21","","","","","null","<p style=""font-size: 30px; font-family: SimSun;"">+</p>","null","","test1_iti","","","","","","","","","","","1148"
"","image-keyboard-response","182","543355","0.0-19.0-0.22","","","","","null","img/instructions_color/blue.png","null","","test1_cue","img/instructions_color/blue.png","","","","","","","","","",""
"","image-keyboard-response","183","544128","0.0-19.0-1.22","","","","","771","img/color/color_211.png","arrowright","","test1_target","img/instructions_color/blue.png","img/color/color_211.png","0","true","","","","","","",""
"","reconstruct-colorwheel","184","556094","0.0-19.0-2.22","","","","","","","000281","","test1_recon","","","","","9482","281","rgba(87, 167, 0, 1)","0.15707963267948966","9","2476.4000000059605",""
"","html-keyboard-response","185","557236","0.0-19.0-3.22","","","","","null","<p style=""font-size: 30px; font-family: SimSun;"">+</p>","null","","test1_iti","","","","","","","","","","","1131"
"","image-keyboard-response","186","557750","0.0-19.0-0.23","","","","","null","img/instructions_color/blue.png","null","","test1_cue","img/instructions_color/blue.png","","","","","","","","","",""
"","image-keyboard-response","187","558149","0.0-19.0-1.23","","","","","397","img/color/color_147.png","arrowleft","","test1_target","img/instructions_color/blue.png","img/color/color_147.png","1","true","","","","","","",""
"","reconstruct-colorwheel","188","568133","0.0-19.0-2.23","","","","","","","000128","","test1_recon","","","","","6306.89999999851","128","rgba(0, 17, 238, 1)","0.1919862177193763","11","3666.2000000029802",""
"","html-keyboard-response","189","569601","0.0-19.0-3.23","","","","","null","<p style=""font-size: 30px; font-family: SimSun;"">+</p>","null","","test1_iti","","","","","","","","","","","1450"
"","image-keyboard-response","190","570114","0.0-19.0-0.24","","","","","null","img/instructions_color/red.png","null","","test1_cue","img/instructions_color/red.png","","","","","","","","","",""
"","image-keyboard-response","191","570784","0.0-19.0-1.24","","","","","667","img/color/color_248.png","arrowright","","test1_target","img/instructions_color/red.png","img/color/color_248.png","0","true","","","","","","",""
"","reconstruct-colorwheel","192","575462","0.0-19.0-2.24","","","","","","","000243","","test1_recon","","","","","2433.10000000149","243","rgba(6, 248, 0, 1)","0.08726646259971638","4","2234.89999999851",""
"","html-keyboard-response","193","576519","0.0-19.0-3.24","","","","","null","<p style=""font-size: 30px; font-family: SimSun;"">+</p>","null","","test1_iti","","","","","","","","","","","1049"
"","image-keyboard-response","194","577029","0.0-19.0-0.25","","","","","null","img/instructions_color/red.png","null","","test1_cue","img/instructions_color/red.png","","","","","","","","","",""
"","image-keyboard-response","195","577439","0.0-19.0-1.25","","","","","407","img/color/color_357.png","arrowleft","","test1_target","img/instructions_color/red.png","img/color/color_357.png","1","true","","","","","","",""
"","reconstruct-colorwheel","196","588251","0.0-19.0-2.25","","","","","","","000001","","test1_recon","","","","","8406.19999999553","1","rgba(252, 0, 2, 1)","0.017453292519943098","0","2397.60000000149",""
"","html-keyboard-response","197","589274","0.0-19.0-3.25","","","","","null","<p style=""font-size: 30px; font-family: SimSun;"">+</p>","null","","test1_iti","","","","","","","","","","","1017"
"","image-keyboard-response","198","589779","0.0-19.0-0.26","","","","","null","img/instructions_color/blue.png","null","","test1_cue","img/instructions_color/blue.png","","","","","","","","","",""
"","image-keyboard-response","199","590350","0.0-19.0-1.26","","","","","569","img/color/color_143.png","arrowleft","","test1_target","img/instructions_color/blue.png","img/color/color_143.png","1","true","","","","","","",""
"","reconstruct-colorwheel","200","602747","0.0-19.0-2.26","","","","","","","000120","","test1_recon","","","","","9103.5","120","rgba(0, 0, 255, 1)","0.15707963267948966","9","3281.89999999851",""
"","html-keyboard-response","201","604163","0.0-19.0-3.26","","","","","null","<p style=""font-size: 30px; font-family: SimSun;"">+</p>","null","","test1_iti","","","","","","","","","","","1403"
"","image-keyboard-response","202","604667","0.0-19.0-0.27","","","","","null","img/instructions_color/green.png","null","","test1_cue","img/instructions_color/green.png","","","","","","","","","",""
"","image-keyboard-response","203","605083","0.0-19.0-1.27","","","","","414","img/color/color_225.png","arrowright","","test1_target","img/instructions_color/green.png","img/color/color_225.png","1","false","","","","","","",""
"","reconstruct-colorwheel","204","614501","0.0-19.0-2.27","","","","","","","000224","","test1_recon","","","","","6982.10000000149","224","rgba(0, 221, 33, 1)","0.17453292519943275","9","2426",""
"","html-keyboard-response","205","615730","0.0-19.0-3.27","","","","","null","<p style=""font-size: 30px; font-family: SimSun;"">+</p>","null","","test1_iti","","","","","","","","","","","1212"
"","image-keyboard-response","206","616235","0.0-19.0-0.28","","","","","null","img/instructions_color/green.png","null","","test1_cue","img/instructions_color/green.png","","","","","","","","","",""
"","image-keyboard-response","207","617128","0.0-19.0-1.28","","","","","891","img/color/color_001.png","arrowright","","test1_target","img/instructions_color/green.png","img/color/color_001.png","0","true","","","","","","",""
"","reconstruct-colorwheel","208","627695","0.0-19.0-2.28","","","","","","","000358","","test1_recon","","","","","8101.19999999553","358","rgba(250, 4, 0, 1)","0.08726646259971638","4","2452.5",""
"","html-keyboard-response","209","628796","0.0-19.0-3.28","","","","","null","<p style=""font-size: 30px; font-family: SimSun;"">+</p>","null","","test1_iti","","","","","","","","","","","1088"
"","image-keyboard-response","210","629300","0.0-19.0-0.29","","","","","null","img/instructions_color/blue.png","null","","test1_cue","img/instructions_color/blue.png","","","","","","","","","",""
"","image-keyboard-response","211","629973","0.0-19.0-1.29","","","","","671","img/color/color_128.png","arrowleft","","test1_target","img/instructions_color/blue.png","img/color/color_128.png","1","true","","","","","","",""
"","reconstruct-colorwheel","212","633641","0.0-19.0-2.29","","","","","","","000112","","test1_recon","","","","","1872.7000000029802","112","rgba(16, 0, 238, 1)","0.2094395102393194","11","1788.3999999985099",""
"","html-keyboard-response","213","635019","0.0-19.0-3.29","","","","","null","<p style=""font-size: 30px; font-family: SimSun;"">+</p>","null","","test1_iti","","","","","","","","","","","1364"
"","image-keyboard-response","214","635522","0.0-19.0-0.30","","","","","null","img/instructions_color/green.png","null","","test1_cue","img/instructions_color/green.png","","","","","","","","","",""
"","image-keyboard-response","215","636182","0.0-19.0-1.30","","","","","659","img/color/color_129.png","arrowright","","test1_target","img/instructions_color/green.png","img/color/color_129.png","0","true","","","","","","",""
"","reconstruct-colorwheel","216","645905","0.0-19.0-2.30","","","","","","","000115","","test1_recon","","","","","7467","115","rgba(10, 0, 244, 1)","0.17453292519943275","9","2243.6999999955297",""
"","html-keyboard-response","217","646991","0.0-19.0-3.30","","","","","null","<p style=""font-size: 30px; font-family: SimSun;"">+</p>","null","","test1_iti","","","","","","","","","","","1068"
"","image-keyboard-response","218","647501","0.0-19.0-0.31","","","","","null","img/instructions_color/red.png","null","","test1_cue","img/instructions_color/red.png","","","","","","","","","",""
"","image-keyboard-response","219","648116","0.0-19.0-1.31","","","","","613","img/color/color_136.png","arrowright","","test1_target","img/instructions_color/red.png","img/color/color_136.png","0","true","","","","","","",""
"","reconstruct-colorwheel","220","659388","0.0-19.0-2.31","","","","","","","000120","","test1_recon","","","","","8616.90000000596","120","rgba(0, 0, 255, 1)","0.17453292519943275","9","2640.0999999940395",""
"","html-keyboard-response","221","660732","0.0-19.0-3.31","","","","","null","<p style=""font-size: 30px; font-family: SimSun;"">+</p>","null","","test1_iti","","","","","","","","","","","1327"
"","image-keyboard-response","222","661234","0.0-19.0-0.32","","","","","null","img/instructions_color/red.png","null","","test1_cue","img/instructions_color/red.png","","","","","","","","","",""
"","image-keyboard-response","223","661722","0.0-19.0-1.32","","","","","487","img/color/color_000.png","arrowleft","","test1_target","img/instructions_color/red.png","img/color/color_000.png","1","true","","","","","","",""
"","reconstruct-colorwheel","224","671174","0.0-19.0-2.32","","","","","","","000359","","test1_recon","","","","","7400.89999999851","359","rgba(252, 2, 0, 1)","0.1919862177193763","11","2037.2999999970198",""
"","html-keyboard-response","225","672609","0.0-19.0-3.32","","","","","null","<p style=""font-size: 30px; font-family: SimSun;"">+</p>","null","","test1_iti","","","","","","","","","","","1419"
"","image-keyboard-response","226","673119","0.0-19.0-0.33","","","","","null","img/instructions_color/blue.png","null","","test1_cue","img/instructions_color/blue.png","","","","","","","","","",""
"","image-keyboard-response","227","673795","0.0-19.0-1.33","","","","","673","img/color/color_015.png","arrowright","","test1_target","img/instructions_color/blue.png","img/color/color_015.png","0","true","","","","","","",""
"","reconstruct-colorwheel","228","679845","0.0-19.0-2.33","","","","","","","000350","","test1_recon","","","","","4048.4000000059605","350","rgba(233, 21, 0, 1)","0.15707963267948966","9","1985.7999999970198",""
"","html-keyboard-response","229","681061","0.0-19.0-3.33","","","","","null","<p style=""font-size: 30px; font-family: SimSun;"">+</p>","null","","test1_iti","","","","","","","","","","","1209"
"","image-keyboard-response","230","681572","0.0-19.0-0.34","","","","","null","img/instructions_color/green.png","null","","test1_cue","img/instructions_color/green.png","","","","","","","","","",""
"","image-keyboard-response","231","682023","0.0-19.0-1.34","","","","","449","img/color/color_349.png","arrowright","","test1_target","img/instructions_color/green.png","img/color/color_349.png","0","true","","","","","","",""
"","reconstruct-colorwheel","232","691395","0.0-19.0-2.34","","","","","","","000008","","test1_recon","","","","","7678.29999999702","8","rgba(238, 0, 17, 1)","0.15707963267948966","9","1687.7000000029802",""
"","html-keyboard-response","233","692830","0.0-19.0-3.34","","","","","null","<p style=""font-size: 30px; font-family: SimSun;"">+</p>","null","","test1_iti","","","","","","","","","","","1425"
"","image-keyboard-response","234","693345","0.0-19.0-0.35","","","","","null","img/instructions_color/red.png","null","","test1_cue","img/instructions_color/red.png","","","","","","","","","",""
"","image-keyboard-response","235","693844","0.0-19.0-1.35","","","","","497","img/color/color_242.png","arrowright","","test1_target","img/instructions_color/red.png","img/color/color_242.png","0","true","","","","","","",""
"","reconstruct-colorwheel","236","705817","0.0-19.0-2.35","","","","","","","000250","","test1_recon","","","","","8814.10000000149","250","rgba(21, 233, 0, 1)","0.10471975511965992","6","3150.5999999940395",""
"","html-keyboard-response","237","707120","0.0-19.0-3.35","","","","","null","<p style=""font-size: 30px; font-family: SimSun;"">+</p>","null","","test1_iti","","","","","","","","","","","1291"
"","image-keyboard-response","238","707635","0.0-19.0-0.36","","","","","null","img/instructions_color/blue.png","null","","test1_cue","img/instructions_color/blue.png","","","","","","","","","",""
"","image-keyboard-response","239","708093","0.0-19.0-1.36","","","","","455","img/color/color_231.png","arrowright","","test1_target","img/instructions_color/blue.png","img/color/color_231.png","0","true","","","","","","",""
"","reconstruct-colorwheel","240","715324","0.0-19.0-2.36","","","","","","","000243","","test1_recon","","","","","4610.79999999702","243","rgba(6, 248, 0, 1)","0.13962634015954656","8","2605.89999999851",""
"","html-keyboard-response","241","716617","0.0-19.0-3.36","","","","","null","<p style=""font-size: 30px; font-family: SimSun;"">+</p>","null","","test1_iti","","","","","","","","","","","1283"
"","image-keyboard-response","242","717127","0.0-19.0-0.37","","","","","null","img/instructions_color/blue.png","null","","test1_cue","img/instructions_color/blue.png","","","","","","","","","",""
"","image-keyboard-response","243","717765","0.0-19.0-1.37","","","","","636","img/color/color_113.png","arrowleft","","test1_target","img/instructions_color/blue.png","img/color/color_113.png","1","true","","","","","","",""
"","reconstruct-colorwheel","244","721156","0.0-19.0-2.37","","","","","","","000128","","test1_recon","","","","","1400","128","rgba(0, 17, 238, 1)","0.22689280275926293","13","1976.3000000044703",""
"","html-keyboard-response","245","722232","0.0-19.0-3.37","","","","","null","<p style=""font-size: 30px; font-family: SimSun;"">+</p>","null","","test1_iti","","","","","","","","","","","1050"
"","image-keyboard-response","246","722743","0.0-19.0-0.38","","","","","null","img/instructions_color/red.png","null","","test1_cue","img/instructions_color/red.png","","","","","","","","","",""
"","image-keyboard-response","247","723367","0.0-19.0-1.38","","","","","622","img/color/color_022.png","arrowleft","","test1_target","img/instructions_color/red.png","img/color/color_022.png","1","true","","","","","","",""
"","reconstruct-colorwheel","248","738287","0.0-19.0-2.38","","","","","","","000044","","test1_recon","","","","","12862.39999999851","44","rgba(161, 0, 93, 1)","0.17453292519943275","9","2040.1999999955297",""
"","html-keyboard-response","249","739513","0.0-19.0-3.38","","","","","null","<p style=""font-size: 30px; font-family: SimSun;"">+</p>","null","","test1_iti","","","","","","","","","","","1218"
"","image-keyboard-response","250","740020","0.0-19.0-0.39","","","","","null","img/instructions_color/green.png","null","","test1_cue","img/instructions_color/green.png","","","","","","","","","",""
"","image-keyboard-response","251","740501","0.0-19.0-1.39","","","","","479","img/color/color_332.png","arrowright","","test1_target","img/instructions_color/green.png","img/color/color_332.png","0","true","","","","","","",""
"","reconstruct-colorwheel","252","743080","0.0-19.0-2.39","","","","","","","000334","","test1_recon","","","","","2564.6999999955297","334","rgba(199, 55, 0, 1)","","NaN","0.20000000298023224",""
"","html-keyboard-response","253","744161","0.0-19.0-3.39","","","","","null","<p style=""font-size: 30px; font-family: SimSun;"">+</p>","null","","test1_iti","","","","","","","","","","","1065"
"","image-keyboard-response","254","744675","0.0-19.0-0.40","","","","","null","img/instructions_color/green.png","null","","test1_cue","img/instructions_color/green.png","","","","","","","","","",""
"","image-keyboard-response","255","745232","0.0-19.0-1.40","","","","","555","img/color/color_226.png","arrowleft","","test1_target","img/instructions_color/green.png","img/color/color_226.png","1","true","","","","","","",""
"","reconstruct-colorwheel","256","747867","0.0-19.0-2.40","","","","","","","000250","","test1_recon","","","","","2622.7000000029802","250","rgba(21, 233, 0, 1)","","NaN","0.19999999552965164",""
"","html-keyboard-response","257","748987","0.0-19.0-3.40","","","","","null","<p style=""font-size: 30px; font-family: SimSun;"">+</p>","null","","test1_iti","","","","","","","","","","","1091"
"","image-keyboard-response","258","749501","0.0-19.0-0.41","","","","","null","img/instructions_color/blue.png","null","","test1_cue","img/instructions_color/blue.png","","","","","","","","","",""
"","image-keyboard-response","259","750199","0.0-19.0-1.41","","","","","697","img/color/color_224.png","arrowright","","test1_target","img/instructions_color/blue.png","img/color/color_224.png","0","true","","","","","","",""
"","reconstruct-colorwheel","260","761514","0.0-19.0-2.41","","","","","","","000235","","test1_recon","","","","","8398.59999999404","235","rgba(0, 244, 10, 1)","0.08726646259971638","4","2908.8000000044703",""
"","html-keyboard-response","261","762910","0.0-19.0-3.41","","","","","null","<p style=""font-size: 30px; font-family: SimSun;"">+</p>","null","","test1_iti","","","","","","","","","","","1385"
"","image-keyboard-response","262","763428","0.0-19.0-0.42","","","","","null","img/instructions_color/green.png","null","","test1_cue","img/instructions_color/green.png","","","","","","","","","",""
"","image-keyboard-response","263","763876","0.0-19.0-1.42","","","","","446","img/color/color_024.png","arrowleft","","test1_target","img/instructions_color/green.png","img/color/color_024.png","0","false","","","","","","",""
"","reconstruct-colorwheel","264","778644","0.0-19.0-2.42","","","","","","","000007","","test1_recon","","","","","12649.20000000298","7","rgba(240, 0, 14, 1)","0.15707963267948966","9","2103.1999999955297",""
"","html-keyboard-response","265","779657","0.0-19.0-3.42","","","","","null","<p style=""font-size: 30px; font-family: SimSun;"">+</p>","null","","test1_iti","","","","","","","","","","","1007"
"","image-keyboard-response","266","780175","0.0-19.0-0.43","","","","","null","img/instructions_color/green.png","null","","test1_cue","img/instructions_color/green.png","","","","","","","","","",""
"","image-keyboard-response","267","780655","0.0-19.0-1.43","","","","","479","img/color/color_237.png","arrowright","","test1_target","img/instructions_color/green.png","img/color/color_237.png","1","false","","","","","","",""
"","reconstruct-colorwheel","268","789130","0.0-19.0-2.43","","","","","","","000254","","test1_recon","","","","","8462.20000000298","254","rgba(29, 225, 0, 1)","","NaN","0.5",""
"","html-keyboard-response","269","790381","0.0-19.0-3.43","","","","","null","<p style=""font-size: 30px; font-family: SimSun;"">+</p>","null","","test1_iti","","","","","","","","","","","1242"
"","image-keyboard-response","270","790892","0.0-19.0-0.44","","","","","null","img/instructions_color/red.png","null","","test1_cue","img/instructions_color/red.png","","","","","","","","","",""
"","image-keyboard-response","271","791486","0.0-19.0-1.44","","","","","592","img/color/color_025.png","arrowleft","","test1_target","img/instructions_color/red.png","img/color/color_025.png","1","true","","","","","","",""
"","reconstruct-colorwheel","272","804120","0.0-19.0-2.44","","","","","","","000040","","test1_recon","","","","","12620.29999999702","40","rgba(170, 0, 85, 1)","","NaN","0.5",""
"","html-keyboard-response","273","805521","0.0-19.0-3.44","","","","","null","<p style=""font-size: 30px; font-family: SimSun;"">+</p>","null","","test1_iti","","","","","","","","","","","1382"
"","image-keyboard-response","274","806032","0.0-19.0-0.45","","","","","null","img/instructions_color/green.png","null","","test1_cue","img/instructions_color/green.png","","","","","","","","","",""
"","image-keyboard-response","275","806596","0.0-19.0-1.45","","","","","564","img/color/color_210.png","arrowleft","","test1_target","img/instructions_color/green.png","img/color/color_210.png","1","true","","","","","","",""
"","reconstruct-colorwheel","276","817243","0.0-19.0-2.45","","","","","","","000279","","test1_recon","","","","","7461.89999999851","279","rgba(82, 172, 0, 1)","0.17453292519943275","9","3177.60000000149",""
"","html-keyboard-response","277","818670","0.0-19.0-3.45","","","","","null","<p style=""font-size: 30px; font-family: SimSun;"">+</p>","null","","test1_iti","","","","","","","","","","","1417"
"","image-keyboard-response","278","819178","0.0-19.0-0.46","","","","","null","img/instructions_color/green.png","null","","test1_cue","img/instructions_color/green.png","","","","","","","","","",""
"","image-keyboard-response","279","819853","0.0-19.0-1.46","","","","","673","img/color/color_122.png","arrowright","","test1_target","img/instructions_color/green.png","img/color/color_122.png","0","true","","","","","","",""
"","reconstruct-colorwheel","280","823076","0.0-19.0-2.46","","","","","","","000116","","test1_recon","","","","","1539","116","rgba(8, 0, 246, 1)","0.12217304763960302","6","1671.5999999940395",""
"","html-keyboard-response","281","824209","0.0-19.0-3.46","","","","","null","<p style=""font-size: 30px; font-family: SimSun;"">+</p>","null","","test1_iti","","","","","","","","","","","1121"
"","image-keyboard-response","282","824721","0.0-19.0-0.47","","","","","null","img/instructions_color/blue.png","null","","test1_cue","img/instructions_color/blue.png","","","","","","","","","",""
"","image-keyboard-response","283","825391","0.0-19.0-1.47","","","","","668","img/color/color_090.png","arrowleft","","test1_target","img/instructions_color/blue.png","img/color/color_090.png","1","true","","","","","","",""
"","reconstruct-colorwheel","284","837619","0.0-19.0-2.47","","","","","","","000100","","test1_recon","","","","","9663.69999999553","100","rgba(42, 0, 212, 1)","0.12217304763960302","6","2553.2000000029802",""
"","html-keyboard-response","285","839078","0.0-19.0-3.47","","","","","null","<p style=""font-size: 30px; font-family: SimSun;"">+</p>","null","","test1_iti","","","","","","","","","","","1450"
"","html-keyboard-response","286","11034101","0.0-20.0","","","","","10195019","<p style='font-size: 30px; font-family: SimSun;'>你当前的平均反应时间为 <strong>0.570秒</strong></p> <p style='font-size: 30px; font-family: SimSun;'>你当前的正确率为 <strong>94%</strong></p> <p style='font-size: 30px; font-family: SimSun;'>按任意键结束</p>"," ","","prac_feedback","","","","94","","","","","","",""
"","image-keyboard-response","287","11037124","0.0-21.0","","","","","3021","img/instructions_color/test2.png"," ","","","","","","","","","","","","",""
"","image-keyboard-response","288","11037639","0.0-22.0-0.0","","","","","null","img/instructions_color/blue.png","null","","test2_cue","img/instructions_color/blue.png","","","","","","","","","",""
"","image-keyboard-response","289","11039647","0.0-22.0-1.0","","","","","null","img/color/color_148.png","null","","test2_target","img/instructions_color/blue.png","img/color/color_148.png","1","false","","","","","","",""
"","reconstruct-colorwheel","290","11053072","0.0-22.0-2.0","","","","","","","000136","","test2_recon","","","","","7183.5","136","rgba(0, 34, 221, 1)","0.08726646259971638","4","6231.699999988079",""
"","html-keyboard-response","291","11054130","0.0-22.0-3.0","","","","","null","<p style=""font-size: 30px; font-family: SimSun;"">+</p>","null","","test2_iti","","","","","","","","","","","1051"
"","image-keyboard-response","292","11054640","0.0-22.0-0.1","","","","","null","img/instructions_color/blue.png","null","","test2_cue","img/instructions_color/blue.png","","","","","","","","","",""
"","image-keyboard-response","293","11056646","0.0-22.0-1.1","","","","","null","img/color/color_236.png","null","","test2_target","img/instructions_color/blue.png","img/color/color_236.png","0","false","","","","","","",""
"","reconstruct-colorwheel","294","11074602","0.0-22.0-2.1","","","","","","","000226","","test2_recon","","","","","14260.5","226","rgba(0, 225, 29, 1)","0.13962634015954656","8","3682.2000000029802",""
"","html-keyboard-response","295","11075652","0.0-22.0-3.1","","","","","null","<p style=""font-size: 30px; font-family: SimSun;"">+</p>","null","","test2_iti","","","","","","","","","","","1035"
"","image-keyboard-response","296","11076164","0.0-22.0-0.2","","","","","null","img/instructions_color/red.png","null","","test2_cue","img/instructions_color/red.png","","","","","","","","","",""
"","image-keyboard-response","297","11076777","0.0-22.0-1.2","","","","","611","img/color/color_110.png","arrowright","","test2_target","img/instructions_color/red.png","img/color/color_110.png","0","true","","","","","","",""
"","reconstruct-colorwheel","298","11089132","0.0-22.0-2.2","","","","","","","000115","","test2_recon","","","","","5952.20000000298","115","rgba(10, 0, 244, 1)","0.12217304763960302","6","6392.399999991059",""
"","html-keyboard-response","299","11090463","0.0-22.0-3.2","","","","","null","<p style=""font-size: 30px; font-family: SimSun;"">+</p>","null","","test2_iti","","","","","","","","","","","1317"
"","image-keyboard-response","300","11090974","0.0-22.0-0.3","","","","","null","img/instructions_color/blue.png","null","","test2_cue","img/instructions_color/blue.png","","","","","","","","","",""
"","image-keyboard-response","301","11091604","0.0-22.0-1.3","","","","","629","img/color/color_122.png","arrowleft","","test2_target","img/instructions_color/blue.png","img/color/color_122.png","1","true","","","","","","",""
"","reconstruct-colorwheel","302","11103851","0.0-22.0-2.3","","","","","","","000121","","test2_recon","","","","","9584","121","rgba(0, 2, 252, 1)","0.08726646259971638","4","2649.7000000029802",""
"","html-keyboard-response","303","11105321","0.0-22.0-3.3","","","","","null","<p style=""font-size: 30px; font-family: SimSun;"">+</p>","null","","test2_iti","","","","","","","","","","","1465"
"","image-keyboard-response","304","11105824","0.0-22.0-0.4","","","","","null","img/instructions_color/red.png","null","","test2_cue","img/instructions_color/red.png","","","","","","","","","",""
"","image-keyboard-response","305","11106469","0.0-22.0-1.4","","","","","643","img/color/color_005.png","arrowleft","","test2_target","img/instructions_color/red.png","img/color/color_005.png","1","true","","","","","","",""
"","reconstruct-colorwheel","306","11120900","0.0-22.0-2.4","","","","","","","000000","","test2_recon","","","","","9964.29999999702","0","rgba(255, 0, 0, 1)","0.06981317007977328","4","4454.5",""
"","html-keyboard-response","307","11121968","0.0-22.0-3.4","","","","","null","<p style=""font-size: 30px; font-family: SimSun;"">+</p>","null","","test2_iti","","","","","","","","","","","1060"
"","image-keyboard-response","308","11122472","0.0-22.0-0.5","","","","","null","img/instructions_color/red.png","null","","test2_cue","img/instructions_color/red.png","","","","","","","","","",""
"","image-keyboard-response","309","11123060","0.0-22.0-1.5","","","","","585","img/color/color_003.png","arrowleft","","test2_target","img/instructions_color/red.png","img/color/color_003.png","1","true","","","","","","",""
"","reconstruct-colorwheel","310","11130777","0.0-22.0-2.5","","","","","","","000001","","test2_recon","","","","","7705.20000000298","1","rgba(252, 0, 2, 1)","","NaN","0.29999999701976776",""
"","html-keyboard-response","311","11131894","0.0-22.0-3.5","","","","","null","<p style=""font-size: 30px; font-family: SimSun;"">+</p>","null","","test2_iti","","","","","","","","","","","1109"
"","image-keyboard-response","312","11132396","0.0-22.0-0.6","","","","","null","img/instructions_color/green.png","null","","test2_cue","img/instructions_color/green.png","","","","","","","","","",""
"","image-keyboard-response","313","11133016","0.0-22.0-1.6","","","","","618","img/color/color_233.png","arrowleft","","test2_target","img/instructions_color/green.png","img/color/color_233.png","1","true","","","","","","",""
"","reconstruct-colorwheel","314","11143119","0.0-22.0-2.6","","","","","","","000233","","test2_recon","","","","","6437","233","rgba(0, 240, 14, 1)","0.06981317007977328","4","3651.9000000059605",""
"","html-keyboard-response","315","11144431","0.0-22.0-3.6","","","","","null","<p style=""font-size: 30px; font-family: SimSun;"">+</p>","null","","test2_iti","","","","","","","","","","","1303"
"","image-keyboard-response","316","11144935","0.0-22.0-0.7","","","","","null","img/instructions_color/blue.png","null","","test2_cue","img/instructions_color/blue.png","","","","","","","","","",""
"","image-keyboard-response","317","11145559","0.0-22.0-1.7","","","","","622","img/color/color_348.png","arrowright","","test2_target","img/instructions_color/blue.png","img/color/color_348.png","0","true","","","","","","",""
"","reconstruct-colorwheel","318","11151597","0.0-22.0-2.7","","","","","","","000000","","test2_recon","","","","","3677.300000011921","0","rgba(255, 0, 0, 1)","0.12217304763960302","6","2351.8999999910593",""
"","html-keyboard-response","319","11153003","0.0-22.0-3.7","","","","","null","<p style=""font-size: 30px; font-family: SimSun;"">+</p>","null","","test2_iti","","","","","","","","","","","1398"
"","image-keyboard-response","320","11153514","0.0-22.0-0.8","","","","","null","img/instructions_color/green.png","null","","test2_cue","img/instructions_color/green.png","","","","","","","","","",""
"","image-keyboard-response","321","11154036","0.0-22.0-1.8","","","","","519","img/color/color_359.png","arrowleft","","test2_target","img/instructions_color/green.png","img/color/color_359.png","0","false","","","","","","",""
"","reconstruct-colorwheel","322","11173595","0.0-22.0-2.8","","","","","","","000011","","test2_recon","","","","","8630.70000000298","11","rgba(231, 0, 23, 1)","0.06981317007977328","4","10917.59999999404",""
"","html-keyboard-response","323","11175028","0.0-22.0-3.8","","","","","null","<p style=""font-size: 30px; font-family: SimSun;"">+</p>","null","","test2_iti","","","","","","","","","","","1426"
"","image-keyboard-response","324","11175539","0.0-22.0-0.9","","","","","null","img/instructions_color/blue.png","null","","test2_cue","img/instructions_color/blue.png","","","","","","","","","",""
"","image-keyboard-response","325","11175989","0.0-22.0-1.9","","","","","448","img/color/color_115.png","arrowleft","","test2_target","img/instructions_color/blue.png","img/color/color_115.png","1","true","","","","","","",""
"","reconstruct-colorwheel","326","11189485","0.0-22.0-2.9","","","","","","","000132","","test2_recon","","","","","10023.20000000298","132","rgba(0, 25, 229, 1)","0.10471975511965992","6","3461.5999999940395",""
"","html-keyboard-response","327","11190515","0.0-22.0-3.9","","","","","null","<p style=""font-size: 30px; font-family: SimSun;"">+</p>","null","","test2_iti","","","","","","","","","","","1015"
"","image-keyboard-response","328","11191018","0.0-22.0-0.10","","","","","null","img/instructions_color/red.png","null","","test2_cue","img/instructions_color/red.png","","","","","","","","","",""
"","image-keyboard-response","329","11191451","0.0-22.0-1.10","","","","","430","img/color/color_007.png","arrowleft","","test2_target","img/instructions_color/red.png","img/color/color_007.png","1","true","","","","","","",""
"","reconstruct-colorwheel","330","11197334","0.0-22.0-2.10","","","","","","","000356","","test2_recon","","","","","1471.2000000029802","356","rgba(246, 8, 0, 1)","0.08726646259971638","4","4398",""
"","html-keyboard-response","331","11198487","0.0-22.0-3.10","","","","","null","<p style=""font-size: 30px; font-family: SimSun;"">+</p>","null","","test2_iti","","","","","","","","","","","1140"
"","image-keyboard-response","332","11198990","0.0-22.0-0.11","","","","","null","img/instructions_color/green.png","null","","test2_cue","img/instructions_color/green.png","","","","","","","","","",""
"","image-keyboard-response","333","11199546","0.0-22.0-1.11","","","","","554","img/color/color_238.png","arrowleft","","test2_target","img/instructions_color/green.png","img/color/color_238.png","1","true","","","","","","",""
"","reconstruct-colorwheel","334","11205616","0.0-22.0-2.11","","","","","","","000224","","test2_recon","","","","","4361.0999999940395","224","rgba(0, 221, 33, 1)","0.06981317007977328","4","1697.2999999970198",""
"","html-keyboard-response","335","11207115","0.0-22.0-3.11","","","","","null","<p style=""font-size: 30px; font-family: SimSun;"">+</p>","null","","test2_iti","","","","","","","","","","","1489"
"","image-keyboard-response","336","11207620","0.0-22.0-0.12","","","","","null","img/instructions_color/blue.png","null","","test2_cue","img/instructions_color/blue.png","","","","","","","","","",""
"","image-keyboard-response","337","11208259","0.0-22.0-1.12","","","","","638","img/color/color_240.png","arrowright","","test2_target","img/instructions_color/blue.png","img/color/color_240.png","0","true","","","","","","",""
"","reconstruct-colorwheel","338","11215165","0.0-22.0-2.12","","","","","","","000109","","test2_recon","","","","","4335.5","109","rgba(23, 0, 231, 1)","0.08726646259971638","4","2554.2999999970198",""
"","html-keyboard-response","339","11216280","0.0-22.0-3.12","","","","","null","<p style=""font-size: 30px; font-family: SimSun;"">+</p>","null","","test2_iti","","","","","","","","","","","1100"
"","image-keyboard-response","340","11216782","0.0-22.0-0.13","","","","","null","img/instructions_color/blue.png","null","","test2_cue","img/instructions_color/blue.png","","","","","","","","","",""
"","image-keyboard-response","341","11217398","0.0-22.0-1.13","","","","","614","img/color/color_021.png","arrowright","","test2_target","img/instructions_color/blue.png","img/color/color_021.png","0","true","","","","","","",""
"","reconstruct-colorwheel","342","11227352","0.0-22.0-2.13","","","","","","","000011","","test2_recon","","","","","9938.40000000596","11","rgba(231, 0, 23, 1)","","NaN","0.09999999403953552",""
"","html-keyboard-response","343","11228834","0.0-22.0-3.13","","","","","null","<p style=""font-size: 30px; font-family: SimSun;"">+</p>","null","","test2_iti","","","","","","","","","","","1476"
"","image-keyboard-response","344","11229338","0.0-22.0-0.14","","","","","null","img/instructions_color/red.png","null","","test2_cue","img/instructions_color/red.png","","","","","","","","","",""
"","image-keyboard-response","345","11229823","0.0-22.0-1.14","","","","","483","img/color/color_349.png","arrowleft","","test2_target","img/instructions_color/red.png","img/color/color_349.png","1","true","","","","","","",""
"","reconstruct-colorwheel","346","11238743","0.0-22.0-2.14","","","","","","","000000","","test2_recon","","","","","7227","0","rgba(255, 0, 0, 1)","0.10471975511965992","6","1681.7000000029802",""
"","html-keyboard-response","347","11240071","0.0-22.0-3.14","","","","","null","<p style=""font-size: 30px; font-family: SimSun;"">+</p>","null","","test2_iti","","","","","","","","","","","1319"
"","image-keyboard-response","348","11240574","0.0-22.0-0.15","","","","","null","img/instructions_color/red.png","null","","test2_cue","img/instructions_color/red.png","","","","","","","","","",""
"","image-keyboard-response","349","11241113","0.0-22.0-1.15","","","","","536","img/color/color_221.png","arrowright","","test2_target","img/instructions_color/red.png","img/color/color_221.png","0","true","","","","","","",""
"","reconstruct-colorwheel","350","11250512","0.0-22.0-2.15","","","","","","","000235","","test2_recon","","","","","6986.100000008941","235","rgba(0, 244, 10, 1)","0.05235987755982974","2","2400.5999999940395",""
"","html-keyboard-response","351","11251628","0.0-22.0-3.15","","","","","null","<p style=""font-size: 30px; font-family: SimSun;"">+</p>","null","","test2_iti","","","","","","","","","","","1107"
"","image-keyboard-response","352","11252131","0.0-22.0-0.16","","","","","null","img/instructions_color/green.png","null","","test2_cue","img/instructions_color/green.png","","","","","","","","","",""
"","image-keyboard-response","353","11252679","0.0-22.0-1.16","","","","","546","img/color/color_243.png","arrowleft","","test2_target","img/instructions_color/green.png","img/color/color_243.png","1","true","","","","","","",""
"","reconstruct-colorwheel","354","11261911","0.0-22.0-2.16","","","","","","","000241","","test2_recon","","","","","5366.79999999702","241","rgba(2, 252, 0, 1)","0.10471975511965992","6","3852.0999999940395",""
"","html-keyboard-response","355","11263276","0.0-22.0-3.16","","","","","null","<p style=""font-size: 30px; font-family: SimSun;"">+</p>","null","","test2_iti","","","","","","","","","","","1353"
"","image-keyboard-response","356","11263788","0.0-22.0-0.17","","","","","null","img/instructions_color/green.png","null","","test2_cue","img/instructions_color/green.png","","","","","","","","","",""
"","image-keyboard-response","357","11265797","0.0-22.0-1.17","","","","","null","img/color/color_124.png","null","","test2_target","img/instructions_color/green.png","img/color/color_124.png","0","false","","","","","","",""
"","reconstruct-colorwheel","358","11281628","0.0-22.0-2.17","","","","","","","000120","","test2_recon","","","","","13291.59999999404","120","rgba(0, 0, 255, 1)","0.12217304763960302","6","2526.5999999940395",""
"","html-keyboard-response","359","11282967","0.0-22.0-3.17","","","","","null","<p style=""font-size: 30px; font-family: SimSun;"">+</p>","null","","test2_iti","","","","","","","","","","","1331"
"","image-keyboard-response","360","11283473","0.0-22.0-0.18","","","","","null","img/instructions_color/red.png","null","","test2_cue","img/instructions_color/red.png","","","","","","","","","",""
"","image-keyboard-response","361","11284010","0.0-22.0-1.18","","","","","536","img/color/color_255.png","arrowright","","test2_target","img/instructions_color/red.png","img/color/color_255.png","0","true","","","","","","",""
"","reconstruct-colorwheel","362","11289657","0.0-22.0-2.18","","","","","","","000247","","test2_recon","","","","","3675.2000000029802","247","rgba(14, 240, 0, 1)","0.13962634015954656","8","1959.199999988079",""
"","html-keyboard-response","363","11290959","0.0-22.0-3.18","","","","","null","<p style=""font-size: 30px; font-family: SimSun;"">+</p>","null","","test2_iti","","","","","","","","","","","1287"
"","image-keyboard-response","364","11291470","0.0-22.0-0.19","","","","","null","img/instructions_color/blue.png","null","","test2_cue","img/instructions_color/blue.png","","","","","","","","","",""
"","image-keyboard-response","365","11292357","0.0-22.0-1.19","","","","","885","img/color/color_024.png","arrowright","","test2_target","img/instructions_color/blue.png","img/color/color_024.png","0","true","","","","","","",""
"","reconstruct-colorwheel","366","11321104","0.0-22.0-2.19","","","","","","","000005","","test2_recon","","","","","8530.5","5","rgba(244, 0, 10, 1)","0.12217304763960302","6","20209.79999999702",""
"","html-keyboard-response","367","11322369","0.0-22.0-3.19","","","","","null","<p style=""font-size: 30px; font-family: SimSun;"">+</p>","null","","test2_iti","","","","","","","","","","","1244"
"","image-keyboard-response","368","11322879","0.0-22.0-0.20","","","","","null","img/instructions_color/blue.png","null","","test2_cue","img/instructions_color/blue.png","","","","","","","","","",""
"","image-keyboard-response","369","11323418","0.0-22.0-1.20","","","","","537","img/color/color_133.png","arrowleft","","test2_target","img/instructions_color/blue.png","img/color/color_133.png","1","true","","","","","","",""
"","reconstruct-colorwheel","370","11335368","0.0-22.0-2.20","","","","","","","000115","","test2_recon","","","","","9686.09999999404","115","rgba(10, 0, 244, 1)","0.10471975511965992","6","2251.1000000089407",""
"","html-keyboard-response","371","11336679","0.0-22.0-3.20","","","","","null","<p style=""font-size: 30px; font-family: SimSun;"">+</p>","null","","test2_iti","","","","","","","","","","","1290"
"","image-keyboard-response","372","11337186","0.0-22.0-0.21","","","","","null","img/instructions_color/green.png","null","","test2_cue","img/instructions_color/green.png","","","","","","","","","",""
"","image-keyboard-response","373","11338267","0.0-22.0-1.21","","","","","1078","img/color/color_126.png","arrowright","","test2_target","img/instructions_color/green.png","img/color/color_126.png","0","true","","","","","","",""
"","reconstruct-colorwheel","374","11349263","0.0-22.0-2.21","","","","","","","000126","","test2_recon","","","","","8912","126","rgba(0, 12, 242, 1)","0.15707963267948966","9","2062.5",""
"","html-keyboard-response","375","11350544","0.0-22.0-3.21","","","","","null","<p style=""font-size: 30px; font-family: SimSun;"">+</p>","null","","test2_iti","","","","","","","","","","","1273"
"","image-keyboard-response","376","11351055","0.0-22.0-0.22","","","","","null","img/instructions_color/green.png","null","","test2_cue","img/instructions_color/green.png","","","","","","","","","",""
"","image-keyboard-response","377","11351492","0.0-22.0-1.22","","","","","434","img/color/color_264.png","arrowleft","","test2_target","img/instructions_color/green.png","img/color/color_264.png","1","true","","","","","","",""
"","reconstruct-colorwheel","378","11358503","0.0-22.0-2.22","","","","","","","000261","","test2_recon","","","","","4900.0999999940395","261","rgba(44, 210, 0, 1)","0.15707963267948966","9","2097.7000000029802",""
"","html-keyboard-response","379","11359939","0.0-22.0-3.22","","","","","null","<p style=""font-size: 30px; font-family: SimSun;"">+</p>","null","","test2_iti","","","","","","","","","","","1426"
"","image-keyboard-response","380","11360447","0.0-22.0-0.23","","","","","null","img/instructions_color/blue.png","null","","test2_cue","img/instructions_color/blue.png","","","","","","","","","",""
"","image-keyboard-response","381","11361200","0.0-22.0-1.23","","","","","750","img/color/color_237.png","arrowright","","test2_target","img/instructions_color/blue.png","img/color/color_237.png","0","true","","","","","","",""
"","reconstruct-colorwheel","382","11373112","0.0-22.0-2.23","","","","","","","000229","","test2_recon","","","","","8026.0999999940395","229","rgba(0, 231, 23, 1)","0.15707963267948966","9","3865.1000000089407",""
"","html-keyboard-response","383","11374458","0.0-22.0-3.23","","","","","null","<p style=""font-size: 30px; font-family: SimSun;"">+</p>","null","","test2_iti","","","","","","","","","","","1323"
"","image-keyboard-response","384","11374965","0.0-22.0-0.24","","","","","null","img/instructions_color/red.png","null","","test2_cue","img/instructions_color/red.png","","","","","","","","","",""
"","image-keyboard-response","385","11375595","0.0-22.0-1.24","","","","","627","img/color/color_143.png","arrowright","","test2_target","img/instructions_color/red.png","img/color/color_143.png","0","true","","","","","","",""
"","reconstruct-colorwheel","386","11383308","0.0-22.0-2.24","","","","","","","000118","","test2_recon","","","","","5641.699999988079","118","rgba(4, 0, 250, 1)","0.17453292519943275","9","2053.5",""
"","html-keyboard-response","387","11384389","0.0-22.0-3.24","","","","","null","<p style=""font-size: 30px; font-family: SimSun;"">+</p>","null","","test2_iti","","","","","","","","","","","1070"
"","image-keyboard-response","388","11384897","0.0-22.0-0.25","","","","","null","img/instructions_color/blue.png","null","","test2_cue","img/instructions_color/blue.png","","","","","","","","","",""
"","image-keyboard-response","389","11385449","0.0-22.0-1.25","","","","","550","img/color/color_244.png","arrowright","","test2_target","img/instructions_color/blue.png","img/color/color_244.png","0","true","","","","","","",""
"","reconstruct-colorwheel","390","11397062","0.0-22.0-2.25","","","","","","","000247","","test2_recon","","","","","9782.79999999702","247","rgba(14, 240, 0, 1)","0.1919862177193763","11","1819.3999999910593",""
"","html-keyboard-response","391","11398380","0.0-22.0-3.25","","","","","null","<p style=""font-size: 30px; font-family: SimSun;"">+</p>","null","","test2_iti","","","","","","","","","","","1302"
"","image-keyboard-response","392","11398886","0.0-22.0-0.26","","","","","null","img/instructions_color/green.png","null","","test2_cue","img/instructions_color/green.png","","","","","","","","","",""
"","image-keyboard-response","393","11399499","0.0-22.0-1.26","","","","","612","img/color/color_242.png","arrowleft","","test2_target","img/instructions_color/green.png","img/color/color_242.png","1","true","","","","","","",""
"","reconstruct-colorwheel","394","11413557","0.0-22.0-2.26","","","","","","","000245","","test2_recon","","","","","12173.79999999702","245","rgba(10, 244, 0, 1)","0.22689280275926293","13","1868.7000000029802",""
"","html-keyboard-response","395","11414774","0.0-22.0-3.26","","","","","null","<p style=""font-size: 30px; font-family: SimSun;"">+</p>","null","","test2_iti","","","","","","","","","","","1201"
"","image-keyboard-response","396","11415277","0.0-22.0-0.27","","","","","null","img/instructions_color/blue.png","null","","test2_cue","img/instructions_color/blue.png","","","","","","","","","",""
"","image-keyboard-response","397","11415833","0.0-22.0-1.27","","","","","554","img/color/color_139.png","arrowleft","","test2_target","img/instructions_color/blue.png","img/color/color_139.png","1","true","","","","","","",""
"","reconstruct-colorwheel","398","11421598","0.0-22.0-2.27","","","","","","","000118","","test2_recon","","","","","5750","118","rgba(4, 0, 250, 1)","","NaN","0.19999998807907104",""
"","html-keyboard-response","399","11422642","0.0-22.0-3.27","","","","","null","<p style=""font-size: 30px; font-family: SimSun;"">+</p>","null","","test2_iti","","","","","","","","","","","1028"
"","image-keyboard-response","400","11423152","0.0-22.0-0.28","","","","","null","img/instructions_color/green.png","null","","test2_cue","img/instructions_color/green.png","","","","","","","","","",""
"","image-keyboard-response","401","11423760","0.0-22.0-1.28","","","","","606","img/color/color_108.png","arrowright","","test2_target","img/instructions_color/green.png","img/color/color_108.png","0","true","","","","","","",""
"","reconstruct-colorwheel","402","11431186","0.0-22.0-2.28","","","","","","","000143","","test2_recon","","","","","5441.4000000059605","143","rgba(0, 48, 206, 1)","0.15707963267948966","9","1969.5999999940395",""
"","html-keyboard-response","403","11432382","0.0-22.0-3.28","","","","","null","<p style=""font-size: 30px; font-family: SimSun;"">+</p>","null","","test2_iti","","","","","","","","","","","1179"
"","image-keyboard-response","404","11432884","0.0-22.0-0.29","","","","","null","img/instructions_color/red.png","null","","test2_cue","img/instructions_color/red.png","","","","","","","","","",""
"","image-keyboard-response","405","11433392","0.0-22.0-1.29","","","","","507","img/color/color_014.png","arrowleft","","test2_target","img/instructions_color/red.png","img/color/color_014.png","1","true","","","","","","",""
"","reconstruct-colorwheel","406","11447493","0.0-22.0-2.29","","","","","","","000011","","test2_recon","","","","","11915.40000000596","11","rgba(231, 0, 23, 1)","0.17453292519943275","9","2172.2999999970198",""
"","html-keyboard-response","407","11448600","0.0-22.0-3.29","","","","","null","<p style=""font-size: 30px; font-family: SimSun;"">+</p>","null","","test2_iti","","","","","","","","","","","1086"
"","image-keyboard-response","408","11449115","0.0-22.0-0.30","","","","","null","img/instructions_color/red.png","null","","test2_cue","img/instructions_color/red.png","","","","","","","","","",""
"","image-keyboard-response","409","11449481","0.0-22.0-1.30","","","","","364","img/color/color_358.png","arrowleft","","test2_target","img/instructions_color/red.png","img/color/color_358.png","1","true","","","","","","",""
"","reconstruct-colorwheel","410","11457966","0.0-22.0-2.30","","","","","","","000004","","test2_recon","","","","","5946.70000000298","4","rgba(246, 0, 8, 1)","0.17453292519943275","9","2525.3999999910593",""
"","html-keyboard-response","411","11459384","0.0-22.0-3.30","","","","","null","<p style=""font-size: 30px; font-family: SimSun;"">+</p>","null","","test2_iti","","","","","","","","","","","1399"
"","image-keyboard-response","412","11459895","0.0-22.0-0.31","","","","","null","img/instructions_color/green.png","null","","test2_cue","img/instructions_color/green.png","","","","","","","","","",""
"","image-keyboard-response","413","11460677","0.0-22.0-1.31","","","","","780","img/color/color_027.png","arrowright","","test2_target","img/instructions_color/green.png","img/color/color_027.png","0","true","","","","","","",""
"","reconstruct-colorwheel","414","11469843","0.0-22.0-2.31","","","","","","","000022","","test2_recon","","","","","6056.5","22","rgba(208, 0, 46, 1)","0.15707963267948966","9","3091.4000000059605",""
"","html-keyboard-response","415","11471184","0.0-22.0-3.31","","","","","null","<p style=""font-size: 30px; font-family: SimSun;"">+</p>","null","","test2_iti","","","","","","","","","","","1324"
"","image-keyboard-response","416","11471693","0.0-22.0-0.32","","","","","null","img/instructions_color/blue.png","null","","test2_cue","img/instructions_color/blue.png","","","","","","","","","",""
"","image-keyboard-response","417","11472284","0.0-22.0-1.32","","","","","589","img/color/color_339.png","arrowright","","test2_target","img/instructions_color/blue.png","img/color/color_339.png","0","true","","","","","","",""
"","reconstruct-colorwheel","418","11486338","0.0-22.0-2.32","","","","","","","000024","","test2_recon","","","","","11094.70000000298","24","rgba(204, 0, 51, 1)","0.17453292519943275","9","2945.7999999970198",""
"","html-keyboard-response","419","11487757","0.0-22.0-3.32","","","","","null","<p style=""font-size: 30px; font-family: SimSun;"">+</p>","null","","test2_iti","","","","","","","","","","","1394"
"","image-keyboard-response","420","11488264","0.0-22.0-0.33","","","","","null","img/instructions_color/green.png","null","","test2_cue","img/instructions_color/green.png","","","","","","","","","",""
"","image-keyboard-response","421","11489070","0.0-22.0-1.33","","","","","804","img/color/color_260.png","arrowleft","","test2_target","img/instructions_color/green.png","img/color/color_260.png","1","true","","","","","","",""
"","reconstruct-colorwheel","422","11497971","0.0-22.0-2.33","","","","","","","000217","","test2_recon","","","","","5289.70000000298","217","rgba(0, 206, 48, 1)","0.1919862177193763","11","3596.7000000029802",""
"","html-keyboard-response","423","11499463","0.0-22.0-3.33","","","","","null","<p style=""font-size: 30px; font-family: SimSun;"">+</p>","null","","test2_iti","","","","","","","","","","","1478"
"","image-keyboard-response","424","11499971","0.0-22.0-0.34","","","","","null","img/instructions_color/blue.png","null","","test2_cue","img/instructions_color/blue.png","","","","","","","","","",""
"","image-keyboard-response","425","11500508","0.0-22.0-1.34","","","","","536","img/color/color_125.png","arrowleft","","test2_target","img/instructions_color/blue.png","img/color/color_125.png","1","true","","","","","","",""
"","reconstruct-colorwheel","426","11510267","0.0-22.0-2.34","","","","","","","000106","","test2_recon","","","","","7685.399999991059","106","rgba(29, 0, 225, 1)","0.2094395102393194","11","2058.4000000059605",""
"","html-keyboard-response","427","11511658","0.0-22.0-3.34","","","","","null","<p style=""font-size: 30px; font-family: SimSun;"">+</p>","null","","test2_iti","","","","","","","","","","","1382"
"","image-keyboard-response","428","11512169","0.0-22.0-0.35","","","","","null","img/instructions_color/red.png","null","","test2_cue","img/instructions_color/red.png","","","","","","","","","",""
"","image-keyboard-response","429","11512583","0.0-22.0-1.35","","","","","413","img/color/color_019.png","arrowleft","","test2_target","img/instructions_color/red.png","img/color/color_019.png","1","true","","","","","","",""
"","reconstruct-colorwheel","430","11518436","0.0-22.0-2.35","","","","","","","000355","","test2_recon","","","","","4097.0999999940395","355","rgba(244, 10, 0, 1)","0.17453292519943275","9","1739.7999999970198",""
"","html-keyboard-response","431","11519651","0.0-22.0-3.35","","","","","null","<p style=""font-size: 30px; font-family: SimSun;"">+</p>","null","","test2_iti","","","","","","","","","","","1196"
"","image-keyboard-response","432","11520169","0.0-22.0-0.36","","","","","null","img/instructions_color/green.png","null","","test2_cue","img/instructions_color/green.png","","","","","","","","","",""
"","image-keyboard-response","433","11520852","0.0-22.0-1.36","","","","","681","img/color/color_010.png","arrowright","","test2_target","img/instructions_color/green.png","img/color/color_010.png","0","true","","","","","","",""
"","reconstruct-colorwheel","434","11527282","0.0-22.0-2.36","","","","","","","000350","","test2_recon","","","","","4208","350","rgba(233, 21, 0, 1)","0.13962634015954656","8","2204.5",""
"","html-keyboard-response","435","11528615","0.0-22.0-3.36","","","","","null","<p style=""font-size: 30px; font-family: SimSun;"">+</p>","null","","test2_iti","","","","","","","","","","","1324"
"","image-keyboard-response","436","11529125","0.0-22.0-0.37","","","","","null","img/instructions_color/green.png","null","","test2_cue","img/instructions_color/green.png","","","","","","","","","",""
"","image-keyboard-response","437","11529666","0.0-22.0-1.37","","","","","538","img/color/color_148.png","arrowright","","test2_target","img/instructions_color/green.png","img/color/color_148.png","0","true","","","","","","",""
"","reconstruct-colorwheel","438","11541668","0.0-22.0-2.37","","","","","","","000127","","test2_recon","","","","","9110.20000000298","127","rgba(0, 14, 240, 1)","0.15707963267948966","9","2872.2999999970198",""
"","html-keyboard-response","439","11542991","0.0-22.0-3.37","","","","","null","<p style=""font-size: 30px; font-family: SimSun;"">+</p>","null","","test2_iti","","","","","","","","","","","1305"
"","image-keyboard-response","440","11543505","0.0-22.0-0.38","","","","","null","img/instructions_color/green.png","null","","test2_cue","img/instructions_color/green.png","","","","","","","","","",""
"","image-keyboard-response","441","11544228","0.0-22.0-1.38","","","","","720","img/color/color_003.png","arrowright","","test2_target","img/instructions_color/green.png","img/color/color_003.png","0","true","","","","","","",""
"","reconstruct-colorwheel","442","11557805","0.0-22.0-2.38","","","","","","","000012","","test2_recon","","","","","10907.09999999404","12","rgba(229, 0, 25, 1)","0.1919862177193763","11","2648.1000000089407",""
"","html-keyboard-response","443","11559201","0.0-22.0-3.38","","","","","null","<p style=""font-size: 30px; font-family: SimSun;"">+</p>","null","","test2_iti","","","","","","","","","","","1383"
"","image-keyboard-response","444","11559709","0.0-22.0-0.39","","","","","null","img/instructions_color/red.png","null","","test2_cue","img/instructions_color/red.png","","","","","","","","","",""
"","image-keyboard-response","445","11560219","0.0-22.0-1.39","","","","","507","img/color/color_357.png","arrowleft","","test2_target","img/instructions_color/red.png","img/color/color_357.png","1","true","","","","","","",""
"","reconstruct-colorwheel","446","11581012","0.0-22.0-2.39","","","","","","","000001","","test2_recon","","","","","7060.5","1","rgba(252, 0, 2, 1)","0.17453292519943275","9","13708.5",""
"","html-keyboard-response","447","11582529","0.0-22.0-3.39","","","","","null","<p style=""font-size: 30px; font-family: SimSun;"">+</p>","null","","test2_iti","","","","","","","","","","","1497"
"","image-keyboard-response","448","11583043","0.0-22.0-0.40","","","","","null","img/instructions_color/green.png","null","","test2_cue","img/instructions_color/green.png","","","","","","","","","",""
"","image-keyboard-response","449","11583661","0.0-22.0-1.40","","","","","615","img/color/color_223.png","arrowleft","","test2_target","img/instructions_color/green.png","img/color/color_223.png","1","true","","","","","","",""
"","reconstruct-colorwheel","450","11593647","0.0-22.0-2.40","","","","","","","000250","","test2_recon","","","","","6629.5","250","rgba(21, 233, 0, 1)","0.17453292519943275","9","3330.8999999910593",""
"","html-keyboard-response","451","11594758","0.0-22.0-3.40","","","","","null","<p style=""font-size: 30px; font-family: SimSun;"">+</p>","null","","test2_iti","","","","","","","","","","","1092"
"","image-keyboard-response","452","11595262","0.0-22.0-0.41","","","","","null","img/instructions_color/blue.png","null","","test2_cue","img/instructions_color/blue.png","","","","","","","","","",""
"","image-keyboard-response","453","11595681","0.0-22.0-1.41","","","","","416","img/color/color_104.png","arrowleft","","test2_target","img/instructions_color/blue.png","img/color/color_104.png","1","true","","","","","","",""
"","reconstruct-colorwheel","454","11605099","0.0-22.0-2.41","","","","","","","000117","","test2_recon","","","","","7238.5999999940395","117","rgba(6, 0, 248, 1)","0.2094395102393194","11","2163.4000000059605",""
"","html-keyboard-response","455","11606503","0.0-22.0-3.41","","","","","null","<p style=""font-size: 30px; font-family: SimSun;"">+</p>","null","","test2_iti","","","","","","","","","","","1389"
"","image-keyboard-response","456","11607010","0.0-22.0-0.42","","","","","null","img/instructions_color/red.png","null","","test2_cue","img/instructions_color/red.png","","","","","","","","","",""
"","image-keyboard-response","457","11607555","0.0-22.0-1.42","","","","","543","img/color/color_101.png","arrowright","","test2_target","img/instructions_color/red.png","img/color/color_101.png","0","true","","","","","","",""
"","reconstruct-colorwheel","458","11612336","0.0-22.0-2.42","","","","","","","000097","","test2_recon","","","","","2377.0999999940395","97","rgba(48, 0, 206, 1)","0.15707963267948966","9","2386.2000000029802",""
"","html-keyboard-response","459","11613583","0.0-22.0-3.42","","","","","null","<p style=""font-size: 30px; font-family: SimSun;"">+</p>","null","","test2_iti","","","","","","","","","","","1229"
"","image-keyboard-response","460","11614098","0.0-22.0-0.43","","","","","null","img/instructions_color/red.png","null","","test2_cue","img/instructions_color/red.png","","","","","","","","","",""
"","image-keyboard-response","461","11614538","0.0-22.0-1.43","","","","","436","img/color/color_103.png","arrowright","","test2_target","img/instructions_color/red.png","img/color/color_103.png","0","true","","","","","","",""
"","reconstruct-colorwheel","462","11624396","0.0-22.0-2.43","","","","","","","000121","","test2_recon","","","","","7030","121","rgba(0, 2, 252, 1)","0.33161255787892285","19","2811.2000000029802",""
"","html-keyboard-response","463","11625779","0.0-22.0-3.43","","","","","null","<p style=""font-size: 30px; font-family: SimSun;"">+</p>","null","","test2_iti","","","","","","","","","","","1371"
"","image-keyboard-response","464","11626288","0.0-22.0-0.44","","","","","null","img/instructions_color/red.png","null","","test2_cue","img/instructions_color/red.png","","","","","","","","","",""
"","image-keyboard-response","465","11626739","0.0-22.0-1.44","","","","","447","img/color/color_214.png","arrowright","","test2_target","img/instructions_color/red.png","img/color/color_214.png","0","true","","","","","","",""
"","reconstruct-colorwheel","466","11637016","0.0-22.0-2.44","","","","","","","000232","","test2_recon","","","","","8476","232","rgba(0, 238, 16, 1)","0.15707963267948966","9","1785.5",""
"","html-keyboard-response","467","11638181","0.0-22.0-3.44","","","","","null","<p style=""font-size: 30px; font-family: SimSun;"">+</p>","null","","test2_iti","","","","","","","","","","","1142"
"","image-keyboard-response","468","11638693","0.0-22.0-0.45","","","","","null","img/instructions_color/red.png","null","","test2_cue","img/instructions_color/red.png","","","","","","","","","",""
"","image-keyboard-response","469","11639327","0.0-22.0-1.45","","","","","632","img/color/color_231.png","arrowright","","test2_target","img/instructions_color/red.png","img/color/color_231.png","0","true","","","","","","",""
"","reconstruct-colorwheel","470","11649964","0.0-22.0-2.45","","","","","","","000240","","test2_recon","","","","","10620.70000000298","240","rgba(0, 255, 0, 1)","","NaN","0.20000000298023224",""
"","html-keyboard-response","471","11651370","0.0-22.0-3.45","","","","","null","<p style=""font-size: 30px; font-family: SimSun;"">+</p>","null","","test2_iti","","","","","","","","","","","1393"
"","image-keyboard-response","472","11651874","0.0-22.0-0.46","","","","","null","img/instructions_color/green.png","null","","test2_cue","img/instructions_color/green.png","","","","","","","","","",""
"","image-keyboard-response","473","11652489","0.0-22.0-1.46","","","","","613","img/color/color_241.png","arrowleft","","test2_target","img/instructions_color/green.png","img/color/color_241.png","1","true","","","","","","",""
"","reconstruct-colorwheel","474","11660327","0.0-22.0-2.46","","","","","","","000243","","test2_recon","","","","","6265.9000000059605","243","rgba(6, 248, 0, 1)","0.08726646259971638","4","1554.7999999970198",""
"","html-keyboard-response","475","11661535","0.0-22.0-3.46","","","","","null","<p style=""font-size: 30px; font-family: SimSun;"">+</p>","null","","test2_iti","","","","","","","","","","","1193"
