"","SubjIdx","BlockIndex","BlockTrial","TrialIndex","Condition","Cue","Correct","Rt","Error","AbsError","UncertaintyImage"
"1","0","1","1","1","incongruent","red",1,683,4,4,8
"2","0","1","2","2","congruent","red",1,386,-11,11,9
"3","0","1","3","3","incongruent","red",1,569,36,36,9
"4","0","1","4","4","congruent","blue",1,528,24,24,8
"5","0","1","5","5","incongruent","red",1,603,7,7,11
"6","0","1","6","6","incongruent","blue",1,658,13,13,2
"7","0","1","7","7","congruent","green",1,628,4,4,6
"8","0","1","8","8","congruent","green",1,479,-1,1,6
"9","0","1","9","9","incongruent","red",1,611,18,18,6
"10","0","1","10","10","incongruent","green",1,676,-28,28,6
"11","0","1","11","11","congruent","blue",1,507,9,9,11
"12","0","1","12","12","congruent","blue",1,685,17,17,4
"13","0","1","13","13","congruent","green",1,607,-21,21,9
"14","0","1","14","14","congruent","red",1,383,-19,19,8
"15","0","1","15","15","incongruent","red",1,489,-4,4,8
"16","0","1","16","16","incongruent","blue",1,661,-20,20,9
"17","0","1","17","17","incongruent","green",1,692,-15,15,8
"18","0","1","18","18","incongruent","blue",1,724,0,0,15
"19","0","1","19","19","congruent","red",1,367,-5,5,11
"20","0","1","20","20","incongruent","blue",1,451,-3,3,9
"21","0","1","21","21","congruent","red",1,415,37,37,6
"22","0","1","22","22","congruent","green",1,513,5,5,6
"23","0","1","23","23","incongruent","blue",1,771,-70,70,9
"24","0","1","24","24","congruent","blue",1,397,19,19,11
"25","0","1","25","25","incongruent","red",1,667,5,5,4
"26","0","1","26","26","congruent","red",1,407,4,4,0
"27","0","1","27","27","congruent","blue",1,569,23,23,9
"28","0","1","28","28","congruent","green",0,414,1,1,9
"29","0","1","29","29","incongruent","green",1,891,-3,3,4
"30","0","1","30","30","congruent","blue",1,671,16,16,11
"31","0","1","31","31","incongruent","green",1,659,14,14,9
"32","0","1","32","32","incongruent","red",1,613,16,16,9
"33","0","1","33","33","congruent","red",1,487,-1,1,11
"34","0","1","34","34","incongruent","blue",1,673,-25,25,9
"35","0","1","35","35","incongruent","green",1,449,19,19,9
"36","0","1","36","36","incongruent","red",1,497,-8,8,6
"37","0","1","37","37","incongruent","blue",1,455,-12,12,8
"38","0","1","38","38","congruent","blue",1,636,-15,15,13
"39","0","1","39","39","congruent","red",1,622,-22,22,9
"40","0","1","40","40","incongruent","green",1,479,-2,2,NA
"41","0","1","41","41","congruent","green",1,555,-24,24,NA
"42","0","1","42","42","incongruent","blue",1,697,-11,11,4
"43","0","1","43","43","incongruent","green",0,446,17,17,9
"44","0","1","44","44","congruent","green",0,479,-17,17,NA
"45","0","1","45","45","congruent","red",1,592,-15,15,NA
"46","0","1","46","46","congruent","green",1,564,-69,69,9
"47","0","1","47","47","incongruent","green",1,673,6,6,6
"48","0","1","48","48","congruent","blue",1,668,-10,10,6
"49","0","2","1","49","congruent","blue",0,NA,12,12,4
"50","0","2","2","50","incongruent","blue",0,NA,10,10,8
"51","0","2","3","51","incongruent","red",1,611,-5,5,6
"52","0","2","4","52","congruent","blue",1,629,1,1,4
"53","0","2","5","53","congruent","red",1,643,5,5,4
"54","0","2","6","54","congruent","red",1,585,2,2,NA
"55","0","2","7","55","congruent","green",1,618,0,0,4
"56","0","2","8","56","incongruent","blue",1,622,12,12,6
"57","0","2","9","57","incongruent","green",0,519,12,12,4
"58","0","2","10","58","congruent","blue",1,448,-17,17,6
"59","0","2","11","59","congruent","red",1,430,-11,11,4
"60","0","2","12","60","congruent","green",1,554,14,14,4
"61","0","2","13","61","incongruent","blue",1,638,131,131,4
"62","0","2","14","62","incongruent","blue",1,614,10,10,NA
"63","0","2","15","63","congruent","red",1,483,11,11,6
"64","0","2","16","64","incongruent","red",1,536,-14,14,2
"65","0","2","17","65","congruent","green",1,546,2,2,6
"66","0","2","18","66","incongruent","green",0,NA,4,4,6
"67","0","2","19","67","incongruent","red",1,536,8,8,8
"68","0","2","20","68","incongruent","blue",1,885,19,19,6
"69","0","2","21","69","congruent","blue",1,537,18,18,6
"70","0","2","22","70","incongruent","green",1,1078,0,0,9
"71","0","2","23","71","congruent","green",1,434,3,3,9
"72","0","2","24","72","incongruent","blue",1,750,8,8,9
"73","0","2","25","73","incongruent","red",1,627,25,25,9
"74","0","2","26","74","incongruent","blue",1,550,-3,3,11
"75","0","2","27","75","congruent","green",1,612,-3,3,13
"76","0","2","28","76","congruent","blue",1,554,21,21,NA
"77","0","2","29","77","incongruent","green",1,606,-35,35,9
"78","0","2","30","78","congruent","red",1,507,3,3,9
"79","0","2","31","79","congruent","red",1,364,6,6,9
"80","0","2","32","80","incongruent","green",1,780,5,5,9
"81","0","2","33","81","incongruent","blue",1,589,45,45,9
"82","0","2","34","82","congruent","green",1,804,43,43,11
"83","0","2","35","83","congruent","blue",1,536,19,19,11
"84","0","2","36","84","congruent","red",1,413,-24,24,9
"85","0","2","37","85","incongruent","green",1,681,-20,20,8
"86","0","2","38","86","incongruent","green",1,538,21,21,9
"87","0","2","39","87","incongruent","green",1,720,-9,9,11
"88","0","2","40","88","congruent","red",1,507,4,4,9
"89","0","2","41","89","congruent","green",1,615,-27,27,9
"90","0","2","42","90","congruent","blue",1,416,-13,13,11
"91","0","2","43","91","incongruent","red",1,543,4,4,9
"92","0","2","44","92","incongruent","red",1,436,-18,18,19
"93","0","2","45","93","incongruent","red",1,447,-18,18,9
"94","0","2","46","94","incongruent","red",1,632,-9,9,NA
"95","0","2","47","95","congruent","green",1,613,-2,2,4
"96","0","2","48","96","congruent","blue",1,446,-6,6,4
"97","0","3","1","97","congruent","green",1,1076,28,28,2
"98","0","3","2","98","congruent","green",1,357,-54,54,6
"99","0","3","3","99","incongruent","red",1,610,-2,2,2
"100","0","3","4","100","incongruent","red",1,457,-5,5,4
"101","0","3","5","101","congruent","green",0,501,-5,5,11
"102","0","3","6","102","congruent","blue",1,472,-18,18,6
"103","0","3","7","103","incongruent","red",1,591,-15,15,9
"104","0","3","8","104","incongruent","green",1,660,20,20,6
"105","0","3","9","105","congruent","green",1,1011,39,39,8
"106","0","3","10","106","congruent","red",1,525,-49,49,9
"107","0","3","11","107","congruent","blue",1,658,33,33,9
"108","0","3","12","108","incongruent","red",1,594,-3,3,6
"109","0","3","13","109","incongruent","green",1,1091,0,0,4
"110","0","3","14","110","congruent","blue",1,406,-117,117,129
"111","0","3","15","111","incongruent","red",1,594,-33,33,9
"112","0","3","16","112","congruent","red",1,553,9,9,8
"113","0","3","17","113","congruent","blue",1,572,-29,29,NA
"114","0","3","18","114","incongruent","green",1,532,-3,3,15
"115","0","3","19","115","congruent","green",1,555,22,22,11
"116","0","3","20","116","incongruent","red",1,489,-14,14,9
"117","0","3","21","117","incongruent","blue",1,632,2,2,8
"118","0","3","22","118","congruent","red",1,437,-4,4,9
"119","0","3","23","119","congruent","blue",1,486,-17,17,9
"120","0","3","24","120","incongruent","blue",1,532,-15,15,13
"121","0","3","25","121","incongruent","green",1,547,-38,38,13
"122","0","3","26","122","incongruent","green",1,843,19,19,13
"123","0","3","27","123","congruent","red",1,518,29,29,9
"124","0","3","28","124","congruent","green",1,621,-7,7,9
"125","0","3","29","125","incongruent","green",0,559,27,27,11
"126","0","3","30","126","incongruent","blue",1,517,3,3,11
"127","0","3","31","127","congruent","red",1,573,-20,20,20
"128","0","3","32","128","incongruent","red",1,491,24,24,9
"129","0","3","33","129","congruent","blue",1,711,16,16,11
"130","0","3","34","130","incongruent","red",1,506,-4,4,15
"131","0","3","35","131","incongruent","blue",1,581,-58,58,11
"132","0","3","36","132","congruent","blue",1,843,15,15,13
"133","0","3","37","133","congruent","red",1,397,-8,8,11
"134","0","3","38","134","incongruent","green",1,678,5,5,11
"135","0","3","39","135","incongruent","blue",1,738,-8,8,9
"136","0","3","40","136","incongruent","blue",1,693,-6,6,15
"137","0","3","41","137","congruent","green",1,564,9,9,6
"138","0","3","42","138","incongruent","blue",1,581,3,3,9
"139","0","3","43","139","congruent","blue",1,474,3,3,9
"140","0","3","44","140","congruent","green",1,607,-44,44,9
"141","0","3","45","141","congruent","red",1,569,51,51,9
"142","0","3","46","142","incongruent","blue",1,654,1,1,9
"143","0","3","47","143","incongruent","green",1,644,-14,14,9
"144","0","3","48","144","congruent","red",1,534,30,30,11
"145","0","4","1","145","incongruent","red",1,681,-18,18,4
"146","0","4","2","146","congruent","red",1,546,14,14,NA
"147","0","4","3","147","incongruent","blue",1,729,-14,14,9
"148","0","4","4","148","congruent","red",1,515,-9,9,9
"149","0","4","5","149","congruent","red",1,405,-10,10,9
"150","0","4","6","150","congruent","red",1,567,-3,3,8
"151","0","4","7","151","congruent","green",0,471,1,1,11
"152","0","4","8","152","incongruent","red",1,732,-6,6,11
"153","0","4","9","153","incongruent","red",1,426,6,6,8
"154","0","4","10","154","congruent","red",1,553,-4,4,6
"155","0","4","11","155","congruent","blue",1,837,9,9,6
"156","0","4","12","156","congruent","green",1,708,-60,60,6
"157","0","4","13","157","incongruent","red",1,707,6,6,8
"158","0","4","14","158","incongruent","blue",1,588,39,39,9
"159","0","4","15","159","incongruent","green",1,462,32,32,9
"160","0","4","16","160","incongruent","blue",1,622,5,5,2
"161","0","4","17","161","incongruent","red",1,739,-27,27,8
"162","0","4","18","162","incongruent","blue",1,674,27,27,11
"163","0","4","19","163","incongruent","red",1,445,8,8,13
"164","0","4","20","164","congruent","blue",1,505,15,15,4
"165","0","4","21","165","incongruent","green",1,608,-6,6,9
"166","0","4","22","166","congruent","blue",1,606,12,12,8
"167","0","4","23","167","congruent","green",1,461,-5,5,2
"168","0","4","24","168","congruent","red",1,378,4,4,2
"169","0","4","25","169","incongruent","green",1,606,3,3,NA
"170","0","4","26","170","incongruent","green",1,989,15,15,NA
"171","0","4","27","171","congruent","green",1,530,-7,7,NA
"172","0","4","28","172","incongruent","red",1,661,9,9,4
"173","0","4","29","173","congruent","blue",1,587,11,11,6
"174","0","4","30","174","congruent","blue",1,402,-9,9,NA
"175","0","4","31","175","congruent","blue",1,573,22,22,6
"176","0","4","32","176","incongruent","blue",1,549,-3,3,6
"177","0","4","33","177","incongruent","blue",1,408,3,3,6
"178","0","4","34","178","incongruent","blue",1,1646,11,11,4
"179","0","4","35","179","congruent","green",1,413,49,49,9
"180","0","4","36","180","incongruent","green",1,398,-29,29,4
"181","0","4","37","181","incongruent","red",1,483,-5,5,4
"182","0","4","38","182","congruent","green",0,376,23,23,9
"183","0","4","39","183","congruent","red",1,598,20,20,4
"184","0","4","40","184","incongruent","blue",1,621,-2,2,4
"185","0","4","41","185","incongruent","green",1,524,25,25,11
"186","0","4","42","186","congruent","green",1,469,-33,33,6
"187","0","4","43","187","congruent","blue",1,790,4,4,4
"188","0","4","44","188","incongruent","green",1,598,-9,9,4
"189","0","4","45","189","congruent","red",1,524,-5,5,NA
"190","0","4","46","190","congruent","green",1,367,42,42,4
"191","0","4","47","191","congruent","blue",1,527,0,0,11
"192","0","4","48","192","incongruent","green",1,553,-21,21,9
"193","0","5","1","193","incongruent","blue",1,789,-3,3,9
"194","0","5","2","194","incongruent","blue",1,860,-32,32,9
"195","0","5","3","195","congruent","blue",1,611,3,3,9
"196","0","5","4","196","congruent","red",1,536,2,2,9
"197","0","5","5","197","incongruent","green",1,558,7,7,9
"198","0","5","6","198","incongruent","red",1,738,0,0,9
"199","0","5","7","199","incongruent","green",1,550,0,0,9
"200","0","5","8","200","congruent","red",1,411,5,5,6
"201","0","5","9","201","congruent","red",1,418,-2,2,11
"202","0","5","10","202","congruent","blue",1,432,-7,7,6
"203","0","5","11","203","incongruent","blue",1,510,3,3,9
"204","0","5","12","204","congruent","green",1,479,27,27,0
"205","0","5","13","205","congruent","red",1,537,26,26,9
"206","0","5","14","206","congruent","blue",1,408,-21,21,9
"207","0","5","15","207","congruent","red",1,534,-14,14,9
"208","0","5","16","208","incongruent","green",1,625,-18,18,4
"209","0","5","17","209","congruent","green",1,483,-60,60,8
"210","0","5","18","210","incongruent","red",1,450,2,2,9
"211","0","5","19","211","incongruent","red",1,528,28,28,9
"212","0","5","20","212","incongruent","green",1,495,-21,21,9
"213","0","5","21","213","incongruent","blue",1,418,-2,2,13
"214","0","5","22","214","incongruent","green",1,555,5,5,11
"215","0","5","23","215","congruent","red",1,595,0,0,11
"216","0","5","24","216","incongruent","red",1,352,2,2,NA
"217","0","5","25","217","congruent","blue",1,604,5,5,11
"218","0","5","26","218","incongruent","green",1,363,-31,31,NA
"219","0","5","27","219","congruent","red",1,444,-7,7,6
"220","0","5","28","220","incongruent","red",1,463,30,30,4
"221","0","5","29","221","congruent","green",1,557,-20,20,6
"222","0","5","30","222","congruent","green",1,371,32,32,8
"223","0","5","31","223","congruent","green",1,420,5,5,15
"224","0","5","32","224","congruent","green",1,412,-2,2,6
"225","0","5","33","225","incongruent","red",1,502,-7,7,6
"226","0","5","34","226","incongruent","blue",0,498,80,80,13
"227","0","5","35","227","congruent","blue",1,535,28,28,13
"228","0","5","36","228","incongruent","red",1,582,3,3,11
"229","0","5","37","229","incongruent","red",1,539,-7,7,11
"230","0","5","38","230","incongruent","green",1,508,12,12,8
"231","0","5","39","231","congruent","blue",1,430,-4,4,9
"232","0","5","40","232","incongruent","blue",1,420,48,48,6
"233","0","5","41","233","congruent","green",1,411,-6,6,9
"234","0","5","42","234","incongruent","green",1,424,4,4,11
"235","0","5","43","235","congruent","blue",1,533,5,5,17
"236","0","5","44","236","incongruent","blue",1,478,10,10,11
"237","0","5","45","237","congruent","blue",1,413,-19,19,13
"238","0","5","46","238","congruent","red",1,428,-16,16,6
"239","0","5","47","239","incongruent","blue",1,578,-4,4,9
"240","0","5","48","240","congruent","green",1,526,-46,46,NA
